%time,field.Header.seq,field.Header.stamp,field.Header.frame_id,field.IMU.header.seq,field.IMU.header.stamp,field.IMU.header.frame_id,field.IMU.orientation.x,field.IMU.orientation.y,field.IMU.orientation.z,field.IMU.orientation.w,field.IMU.orientation_covariance0,field.IMU.orientation_covariance1,field.IMU.orientation_covariance2,field.IMU.orientation_covariance3,field.IMU.orientation_covariance4,field.IMU.orientation_covariance5,field.IMU.orientation_covariance6,field.IMU.orientation_covariance7,field.IMU.orientation_covariance8,field.IMU.angular_velocity.x,field.IMU.angular_velocity.y,field.IMU.angular_velocity.z,field.IMU.angular_velocity_covariance0,field.IMU.angular_velocity_covariance1,field.IMU.angular_velocity_covariance2,field.IMU.angular_velocity_covariance3,field.IMU.angular_velocity_covariance4,field.IMU.angular_velocity_covariance5,field.IMU.angular_velocity_covariance6,field.IMU.angular_velocity_covariance7,field.IMU.angular_velocity_covariance8,field.IMU.linear_acceleration.x,field.IMU.linear_acceleration.y,field.IMU.linear_acceleration.z,field.IMU.linear_acceleration_covariance0,field.IMU.linear_acceleration_covariance1,field.IMU.linear_acceleration_covariance2,field.IMU.linear_acceleration_covariance3,field.IMU.linear_acceleration_covariance4,field.IMU.linear_acceleration_covariance5,field.IMU.linear_acceleration_covariance6,field.IMU.linear_acceleration_covariance7,field.IMU.linear_acceleration_covariance8,field.MagField.header.seq,field.MagField.header.stamp,field.MagField.header.frame_id,field.MagField.magnetic_field.x,field.MagField.magnetic_field.y,field.MagField.magnetic_field.z,field.MagField.magnetic_field_covariance0,field.MagField.magnetic_field_covariance1,field.MagField.magnetic_field_covariance2,field.MagField.magnetic_field_covariance3,field.MagField.magnetic_field_covariance4,field.MagField.magnetic_field_covariance5,field.MagField.magnetic_field_covariance6,field.MagField.magnetic_field_covariance7,field.MagField.magnetic_field_covariance8,field.VNYMR
1698454860640777394,0,1698454860636621475,IMU1_Frame,701,1698454860636621475,,-0.41741507405730116,-0.23924597788650326,0.8678593197307606,0.12387985781122815,0.0,0.0,0.0,0.0,0.0,0.0,0.0,0.0,0.0,-0.001408,-0.00148,0.03116,0.0,0.0,0.0,0.0,0.0,0.0,0.0,0.0,0.0,1.665,0.211,-10.028,0.0,0.0,0.0,0.0,0.0,0.0,0.0,0.0,0.0,701,1698454860636621475,,0.017,0.1731,0.1097,0.0,0.0,0.0,0.0,0.0,0.0,0.0,0.0,0.0,
1698454860663668396,0,1698454860661465406,IMU1_Frame,702,1698454860661465406,,-0.4127007960234722,-0.24821863581213396,0.8703687608018659,0.10258548638759785,0.0,0.0,0.0,0.0,0.0,0.0,0.0,0.0,0.0,-0.003513,-0.000142,0.03658,0.0,0.0,0.0,0.0,0.0,0.0,0.0,0.0,0.0,1.658,0.116,-10.049,0.0,0.0,0.0,0.0,0.0,0.0,0.0,0.0,0.0,702,1698454860661465406,,0.0242,0.1805,0.1043,0.0,0.0,0.0,0.0,0.0,0.0,0.0,0.0,0.0,
1698454860689674279,0,1698454860686518669,IMU1_Frame,703,1698454860686518669,,-0.4078689041250532,-0.25842250641428555,0.8722249000336881,0.07800313447297808,0.0,0.0,0.0,0.0,0.0,0.0,0.0,0.0,0.0,-0.002661,0.000304,0.0375,0.0,0.0,0.0,0.0,0.0,0.0,0.0,0.0,0.0,1.686,0.178,-9.896,0.0,0.0,0.0,0.0,0.0,0.0,0.0,0.0,0.0,703,1698454860686518669,,0.0195,0.1655,0.112,0.0,0.0,0.0,0.0,0.0,0.0,0.0,0.0,0.0,
1698454860713960123,0,1698454860711856126,IMU1_Frame,704,1698454860711856126,,-0.40180631781096166,-0.2686272795110078,0.8737969134757076,0.053572583193627454,0.0,0.0,0.0,0.0,0.0,0.0,0.0,0.0,0.0,-0.005951,0.005513,0.04068,0.0,0.0,0.0,0.0,0.0,0.0,0.0,0.0,0.0,1.705,0.105,-10.004,0.0,0.0,0.0,0.0,0.0,0.0,0.0,0.0,0.0,704,1698454860711856126,,0.0168,0.1693,0.1132,0.0,0.0,0.0,0.0,0.0,0.0,0.0,0.0,0.0,
1698454860738163157,0,1698454860736617565,IMU1_Frame,705,1698454860736617565,,-0.3950903027203355,-0.2806079186680451,0.8743525067428379,0.02589483789594485,0.0,0.0,0.0,0.0,0.0,0.0,0.0,0.0,0.0,-0.005501,0.003256,0.04327,0.0,0.0,0.0,0.0,0.0,0.0,0.0,0.0,0.0,1.678,0.153,-9.978,0.0,0.0,0.0,0.0,0.0,0.0,0.0,0.0,0.0,705,1698454860736617565,,0.0198,0.175,0.1119,0.0,0.0,0.0,0.0,0.0,0.0,0.0,0.0,0.0,
1698454860764497423,0,1698454860761746644,IMU1_Frame,706,1698454860761746644,,-0.38840801116642126,-0.2923047548470721,0.8738915164561365,-0.0032809482672543078,0.0,0.0,0.0,0.0,0.0,0.0,0.0,0.0,0.0,-0.005502,0.002519,0.04671,0.0,0.0,0.0,0.0,0.0,0.0,0.0,0.0,0.0,1.644,0.11,-9.915,0.0,0.0,0.0,0.0,0.0,0.0,0.0,0.0,0.0,706,1698454860761746644,,0.0225,0.1691,0.1002,0.0,0.0,0.0,0.0,0.0,0.0,0.0,0.0,0.0,
1698454860789824783,0,1698454860786858797,IMU1_Frame,707,1698454860786858797,,-0.38145442480336184,-0.30457248917894003,0.8720696573498848,-0.0349661745539246,0.0,0.0,0.0,0.0,0.0,0.0,0.0,0.0,0.0,-0.005674,0.005722,0.0487,0.0,0.0,0.0,0.0,0.0,0.0,0.0,0.0,0.0,1.779,0.2,-9.862,0.0,0.0,0.0,0.0,0.0,0.0,0.0,0.0,0.0,707,1698454860786858797,,0.0169,0.1712,0.112,0.0,0.0,0.0,0.0,0.0,0.0,0.0,0.0,0.0,
1698454860815298958,0,1698454860811811685,IMU1_Frame,708,1698454860811811685,,-0.3724539204778563,-0.31826370349367245,0.8691775662010465,-0.06720603077099487,0.0,0.0,0.0,0.0,0.0,0.0,0.0,0.0,0.0,-0.00661,0.00326,0.04919,0.0,0.0,0.0,0.0,0.0,0.0,0.0,0.0,0.0,1.778,0.148,-9.944,0.0,0.0,0.0,0.0,0.0,0.0,0.0,0.0,0.0,708,1698454860811811685,,0.0185,0.1769,0.1126,0.0,0.0,0.0,0.0,0.0,0.0,0.0,0.0,0.0,
1698454860840615598,0,1698454860836677074,IMU1_Frame,709,1698454860836677074,,-0.36393019922701725,-0.331377507177075,0.8645101758631863,-0.10181313106222417,0.0,0.0,0.0,0.0,0.0,0.0,0.0,0.0,0.0,-0.006735,0.008921,0.05411,0.0,0.0,0.0,0.0,0.0,0.0,0.0,0.0,0.0,1.804,0.215,-9.979,0.0,0.0,0.0,0.0,0.0,0.0,0.0,0.0,0.0,709,1698454860836677074,,0.0184,0.1692,0.1033,0.0,0.0,0.0,0.0,0.0,0.0,0.0,0.0,0.0,
1698454860862880132,0,1698454860861373662,IMU1_Frame,710,1698454860861373662,,-0.35359721524084625,-0.3456585720163319,0.8583208004855382,-0.1370203065950955,0.0,0.0,0.0,0.0,0.0,0.0,0.0,0.0,0.0,-0.007789,5.4e-05,0.05388,0.0,0.0,0.0,0.0,0.0,0.0,0.0,0.0,0.0,1.76,0.236,-10.078,0.0,0.0,0.0,0.0,0.0,0.0,0.0,0.0,0.0,710,1698454860861373662,,0.0182,0.1673,0.1079,0.0,0.0,0.0,0.0,0.0,0.0,0.0,0.0,0.0,
1698454860888814611,0,1698454860886405229,IMU1_Frame,711,1698454860886405229,,-0.3438728089915446,-0.35991301080120763,0.8497003977561606,-0.1738486409072473,0.0,0.0,0.0,0.0,0.0,0.0,0.0,0.0,0.0,-0.008587,0.004373,0.05778,0.0,0.0,0.0,0.0,0.0,0.0,0.0,0.0,0.0,1.874,0.224,-9.878,0.0,0.0,0.0,0.0,0.0,0.0,0.0,0.0,0.0,711,1698454860886405229,,0.0198,0.1711,0.105,0.0,0.0,0.0,0.0,0.0,0.0,0.0,0.0,0.0,
1698454860914104842,0,1698454860911507368,IMU1_Frame,712,1698454860911507368,,-0.3325275490710703,-0.3735063423665201,0.8400324291854635,-0.21039001696264029,0.0,0.0,0.0,0.0,0.0,0.0,0.0,0.0,0.0,-0.007661,0.005224,0.05767,0.0,0.0,0.0,0.0,0.0,0.0,0.0,0.0,0.0,1.873,0.243,-9.995,0.0,0.0,0.0,0.0,0.0,0.0,0.0,0.0,0.0,712,1698454860911507368,,0.0185,0.1769,0.1137,0.0,0.0,0.0,0.0,0.0,0.0,0.0,0.0,0.0,
1698454860938340883,0,1698454860936400651,IMU1_Frame,713,1698454860936400651,,-0.31973515441927386,-0.3878254363354169,0.8280934237843173,-0.24823807815259447,0.0,0.0,0.0,0.0,0.0,0.0,0.0,0.0,0.0,-0.007283,0.003172,0.06307,0.0,0.0,0.0,0.0,0.0,0.0,0.0,0.0,0.0,1.793,0.141,-9.86,0.0,0.0,0.0,0.0,0.0,0.0,0.0,0.0,0.0,713,1698454860936400651,,0.0158,0.1807,0.1161,0.0,0.0,0.0,0.0,0.0,0.0,0.0,0.0,0.0,
1698454860963268736,0,1698454860962229251,IMU1_Frame,714,1698454860962229251,,-0.30542068210858847,-0.4017844642279941,0.8144203585907398,-0.2863685226387128,0.0,0.0,0.0,0.0,0.0,0.0,0.0,0.0,0.0,-0.00867,0.008539,0.06298,0.0,0.0,0.0,0.0,0.0,0.0,0.0,0.0,0.0,1.869,0.269,-10.03,0.0,0.0,0.0,0.0,0.0,0.0,0.0,0.0,0.0,714,1698454860962229251,,0.0157,0.1769,0.115,0.0,0.0,0.0,0.0,0.0,0.0,0.0,0.0,0.0,
1698454860988270805,0,1698454860986491918,IMU1_Frame,715,1698454860986491918,,-0.29033908333049846,-0.41593832704232003,0.7982345978466385,-0.32483850077947524,0.0,0.0,0.0,0.0,0.0,0.0,0.0,0.0,0.0,-0.007363,0.000437,0.06593,0.0,0.0,0.0,0.0,0.0,0.0,0.0,0.0,0.0,1.896,0.236,-10.007,0.0,0.0,0.0,0.0,0.0,0.0,0.0,0.0,0.0,715,1698454860986491918,,0.0129,0.177,0.1162,0.0,0.0,0.0,0.0,0.0,0.0,0.0,0.0,0.0,
1698454861014756189,0,1698454861011427879,IMU1_Frame,716,1698454861011427879,,-0.27351272697099405,-0.4302283932378747,0.7793135836752285,-0.36436884627547383,0.0,0.0,0.0,0.0,0.0,0.0,0.0,0.0,0.0,-0.010067,0.000789,0.068,0.0,0.0,0.0,0.0,0.0,0.0,0.0,0.0,0.0,1.917,0.177,-9.848,0.0,0.0,0.0,0.0,0.0,0.0,0.0,0.0,0.0,716,1698454861011427879,,0.019,0.1919,0.1079,0.0,0.0,0.0,0.0,0.0,0.0,0.0,0.0,0.0,
1698454861039120395,0,1698454861036575794,IMU1_Frame,717,1698454861036575794,,-0.2550786792412718,-0.44380213276885416,0.7582755227410826,-0.40372362571204923,0.0,0.0,0.0,0.0,0.0,0.0,0.0,0.0,0.0,-0.009115,0.00143,0.07169,0.0,0.0,0.0,0.0,0.0,0.0,0.0,0.0,0.0,1.947,0.237,-9.859,0.0,0.0,0.0,0.0,0.0,0.0,0.0,0.0,0.0,717,1698454861036575794,,0.0146,0.1864,0.1156,0.0,0.0,0.0,0.0,0.0,0.0,0.0,0.0,0.0,
1698454861063960536,0,1698454861061570644,IMU1_Frame,718,1698454861061570644,,-0.23478827195869412,-0.4577490471167516,0.7334472881142982,-0.44429196793565606,0.0,0.0,0.0,0.0,0.0,0.0,0.0,0.0,0.0,-0.008827,0.007383,0.07473,0.0,0.0,0.0,0.0,0.0,0.0,0.0,0.0,0.0,2.018,0.211,-9.922,0.0,0.0,0.0,0.0,0.0,0.0,0.0,0.0,0.0,718,1698454861061570644,,0.0127,0.1732,0.1185,0.0,0.0,0.0,0.0,0.0,0.0,0.0,0.0,0.0,
1698454861087562718,0,1698454861086445569,IMU1_Frame,719,1698454861086445569,,-0.21349256300875252,-0.47063819005478214,0.7061932751118908,-0.4839542104255874,0.0,0.0,0.0,0.0,0.0,0.0,0.0,0.0,0.0,-0.011221,0.008057,0.07776,0.0,0.0,0.0,0.0,0.0,0.0,0.0,0.0,0.0,1.986,0.156,-9.98,0.0,0.0,0.0,0.0,0.0,0.0,0.0,0.0,0.0,719,1698454861086445569,,0.0103,0.1827,0.1198,0.0,0.0,0.0,0.0,0.0,0.0,0.0,0.0,0.0,
1698454861113243606,0,1698454861111437320,IMU1_Frame,720,1698454861111437320,,-0.19099467301728698,-0.4838201045114114,0.6742228892921904,-0.5242734371528633,0.0,0.0,0.0,0.0,0.0,0.0,0.0,0.0,0.0,-0.009573,0.008693,0.08065,0.0,0.0,0.0,0.0,0.0,0.0,0.0,0.0,0.0,1.996,0.285,-9.986,0.0,0.0,0.0,0.0,0.0,0.0,0.0,0.0,0.0,720,1698454861111437320,,0.0144,0.1808,0.1168,0.0,0.0,0.0,0.0,0.0,0.0,0.0,0.0,0.0,
1698454861138095892,0,1698454861136366844,IMU1_Frame,721,1698454861136366844,,-0.16546937177439808,-0.49584821436341725,0.6395829852480794,-0.5636382175636706,0.0,0.0,0.0,0.0,0.0,0.0,0.0,0.0,0.0,-0.012191,0.001639,0.08251,0.0,0.0,0.0,0.0,0.0,0.0,0.0,0.0,0.0,2.051,0.248,-9.888,0.0,0.0,0.0,0.0,0.0,0.0,0.0,0.0,0.0,721,1698454861136366844,,0.0073,0.1752,0.1187,0.0,0.0,0.0,0.0,0.0,0.0,0.0,0.0,0.0,
1698454861165342532,0,1698454861162367582,IMU1_Frame,722,1698454861162367582,,-0.13961406412145047,-0.5077740146869655,0.5995311907024213,-0.602690479834475,0.0,0.0,0.0,0.0,0.0,0.0,0.0,0.0,0.0,-0.012729,0.005512,0.08806,0.0,0.0,0.0,0.0,0.0,0.0,0.0,0.0,0.0,2.02,0.148,-9.881,0.0,0.0,0.0,0.0,0.0,0.0,0.0,0.0,0.0,722,1698454861162367582,,0.0117,0.1826,0.1133,0.0,0.0,0.0,0.0,0.0,0.0,0.0,0.0,0.0,
1698454861189766613,0,1698454861187186241,IMU1_Frame,723,1698454861187186241,,-0.11167344783502067,-0.5178767543840215,0.5569122254610903,-0.6396729488178211,0.0,0.0,0.0,0.0,0.0,0.0,0.0,0.0,0.0,-0.009018,0.005413,0.08796,0.0,0.0,0.0,0.0,0.0,0.0,0.0,0.0,0.0,2.188,0.253,-9.841,0.0,0.0,0.0,0.0,0.0,0.0,0.0,0.0,0.0,723,1698454861187186241,,0.0108,0.1959,0.114,0.0,0.0,0.0,0.0,0.0,0.0,0.0,0.0,0.0,
1698454861215406668,0,1698454861211416721,IMU1_Frame,724,1698454861211416721,,-0.08235069375287893,-0.5261474535464006,0.5108511797752086,-0.6748468659535549,0.0,0.0,0.0,0.0,0.0,0.0,0.0,0.0,0.0,-0.009767,0.007732,0.09353,0.0,0.0,0.0,0.0,0.0,0.0,0.0,0.0,0.0,2.228,0.306,-9.873,0.0,0.0,0.0,0.0,0.0,0.0,0.0,0.0,0.0,724,1698454861211416721,,0.009,0.1826,0.1123,0.0,0.0,0.0,0.0,0.0,0.0,0.0,0.0,0.0,
1698454861240532679,0,1698454861236406087,IMU1_Frame,725,1698454861236406087,,-0.052035494195179055,-0.5333558464837092,0.46062876870456015,-0.7075627080388215,0.0,0.0,0.0,0.0,0.0,0.0,0.0,0.0,0.0,-0.009905,0.012061,0.09379,0.0,0.0,0.0,0.0,0.0,0.0,0.0,0.0,0.0,2.14,0.159,-9.949,0.0,0.0,0.0,0.0,0.0,0.0,0.0,0.0,0.0,725,1698454861236406087,,0.0032,0.1791,0.124,0.0,0.0,0.0,0.0,0.0,0.0,0.0,0.0,0.0,
1698454861263966272,0,1698454861261349201,IMU1_Frame,726,1698454861261349201,,-0.021560545261548103,-0.538446300005287,0.40849340411875545,-0.7367115199928074,0.0,0.0,0.0,0.0,0.0,0.0,0.0,0.0,0.0,-0.009823,0.004191,0.0973,0.0,0.0,0.0,0.0,0.0,0.0,0.0,0.0,0.0,2.234,0.167,-9.849,0.0,0.0,0.0,0.0,0.0,0.0,0.0,0.0,0.0,726,1698454861261349201,,0.0049,0.1885,0.1234,0.0,0.0,0.0,0.0,0.0,0.0,0.0,0.0,0.0,
1698454861288736100,0,1698454861286949872,IMU1_Frame,727,1698454861286949872,,0.009449288143944301,-0.5414712447873933,0.35393557495563693,-0.7625281704978422,0.0,0.0,0.0,0.0,0.0,0.0,0.0,0.0,0.0,-0.008643,0.012021,0.09637,0.0,0.0,0.0,0.0,0.0,0.0,0.0,0.0,0.0,2.33,0.243,-9.873,0.0,0.0,0.0,0.0,0.0,0.0,0.0,0.0,0.0,727,1698454861286949872,,0.0092,0.1903,0.1157,0.0,0.0,0.0,0.0,0.0,0.0,0.0,0.0,0.0,
1698454861313724895,0,1698454861311996936,IMU1_Frame,728,1698454861311996936,,0.04280547349523969,-0.5431543949361995,0.2957937572953184,-0.7846381636432537,0.0,0.0,0.0,0.0,0.0,0.0,0.0,0.0,0.0,-0.009899,0.0071,0.09946,0.0,0.0,0.0,0.0,0.0,0.0,0.0,0.0,0.0,2.173,0.321,-9.963,0.0,0.0,0.0,0.0,0.0,0.0,0.0,0.0,0.0,728,1698454861311996936,,0.0062,0.1827,0.117,0.0,0.0,0.0,0.0,0.0,0.0,0.0,0.0,0.0,
1698454861338668461,0,1698454861337037324,IMU1_Frame,729,1698454861337037324,,0.07648948914902631,-0.5424516179153839,0.23565566192491308,-0.8027216262649427,0.0,0.0,0.0,0.0,0.0,0.0,0.0,0.0,0.0,-0.009304,0.006003,0.10211,0.0,0.0,0.0,0.0,0.0,0.0,0.0,0.0,0.0,2.223,0.245,-9.933,0.0,0.0,0.0,0.0,0.0,0.0,0.0,0.0,0.0,729,1698454861337037324,,0.0079,0.1941,0.121,0.0,0.0,0.0,0.0,0.0,0.0,0.0,0.0,0.0,
1698454861363013275,0,1698454861361983060,IMU1_Frame,730,1698454861361983060,,0.11033294688827508,-0.5396950838365939,0.17448043896168966,-0.8161571133876717,0.0,0.0,0.0,0.0,0.0,0.0,0.0,0.0,0.0,-0.010529,0.001917,0.10174,0.0,0.0,0.0,0.0,0.0,0.0,0.0,0.0,0.0,2.175,0.221,-9.837,0.0,0.0,0.0,0.0,0.0,0.0,0.0,0.0,0.0,730,1698454861361983060,,0.0022,0.1923,0.1247,0.0,0.0,0.0,0.0,0.0,0.0,0.0,0.0,0.0,
1698454861389297105,0,1698454861386995553,IMU1_Frame,731,1698454861386995553,,0.14452560759828265,-0.5350622461634323,0.11157716702797452,-0.8248462143193126,0.0,0.0,0.0,0.0,0.0,0.0,0.0,0.0,0.0,-0.009586,0.004465,0.10195,0.0,0.0,0.0,0.0,0.0,0.0,0.0,0.0,0.0,2.252,0.129,-9.909,0.0,0.0,0.0,0.0,0.0,0.0,0.0,0.0,0.0,731,1698454861386995553,,-0.0034,0.1925,0.1306,0.0,0.0,0.0,0.0,0.0,0.0,0.0,0.0,0.0,
1698454861414991960,0,1698454861412129640,IMU1_Frame,732,1698454861412129640,,0.17888602708852314,-0.5286731292477216,0.04790105861803434,-0.8283779332570234,0.0,0.0,0.0,0.0,0.0,0.0,0.0,0.0,0.0,-0.008622,0.001938,0.10097,0.0,0.0,0.0,0.0,0.0,0.0,0.0,0.0,0.0,2.234,0.16,-9.798,0.0,0.0,0.0,0.0,0.0,0.0,0.0,0.0,0.0,732,1698454861412129640,,0.0041,0.2036,0.1182,0.0,0.0,0.0,0.0,0.0,0.0,0.0,0.0,0.0,
1698454861439404521,0,1698454861436916828,IMU1_Frame,733,1698454861436916828,,0.21314746931871442,-0.5191258105540653,-0.015556306847122864,-0.8275473101019003,0.0,0.0,0.0,0.0,0.0,0.0,0.0,0.0,0.0,-0.008733,0.004324,0.10413,0.0,0.0,0.0,0.0,0.0,0.0,0.0,0.0,0.0,2.413,0.201,-9.686,0.0,0.0,0.0,0.0,0.0,0.0,0.0,0.0,0.0,733,1698454861436916828,,0.001,0.1962,0.1253,0.0,0.0,0.0,0.0,0.0,0.0,0.0,0.0,0.0,
1698454861464499982,0,1698454861462271690,IMU1_Frame,734,1698454861462271690,,0.24753861573719174,-0.5075978056641455,-0.0794229840123601,-0.82143842801176,0.0,0.0,0.0,0.0,0.0,0.0,0.0,0.0,0.0,-0.008019,0.012339,0.10483,0.0,0.0,0.0,0.0,0.0,0.0,0.0,0.0,0.0,2.383,0.195,-9.864,0.0,0.0,0.0,0.0,0.0,0.0,0.0,0.0,0.0,734,1698454861462271690,,-0.0003,0.2,0.1271,0.0,0.0,0.0,0.0,0.0,0.0,0.0,0.0,0.0,
1698454861489076966,0,1698454861486981630,IMU1_Frame,735,1698454861486981630,,0.2807795864970247,-0.4948369202370735,-0.1432179393744271,-0.8098073030160884,0.0,0.0,0.0,0.0,0.0,0.0,0.0,0.0,0.0,-0.008627,0.010895,0.1075,0.0,0.0,0.0,0.0,0.0,0.0,0.0,0.0,0.0,2.416,0.163,-9.856,0.0,0.0,0.0,0.0,0.0,0.0,0.0,0.0,0.0,735,1698454861486981630,,-0.0004,0.1962,0.1259,0.0,0.0,0.0,0.0,0.0,0.0,0.0,0.0,0.0,
1698454861519363730,0,1698454861516583442,IMU1_Frame,736,1698454861516583442,,0.314346960283611,-0.4777815382882698,-0.2051445374574048,-0.7942458743882373,0.0,0.0,0.0,0.0,0.0,0.0,0.0,0.0,0.0,-0.009562,0.014597,0.10578,0.0,0.0,0.0,0.0,0.0,0.0,0.0,0.0,0.0,2.393,0.219,-9.911,0.0,0.0,0.0,0.0,0.0,0.0,0.0,0.0,0.0,736,1698454861516583442,,0.0039,0.1998,0.1205,0.0,0.0,0.0,0.0,0.0,0.0,0.0,0.0,0.0,
1698454861540937996,0,1698454861536988496,IMU1_Frame,737,1698454861536988496,,0.3464592577395484,-0.4599849661846007,-0.26628382797101435,-0.772963606240175,0.0,0.0,0.0,0.0,0.0,0.0,0.0,0.0,0.0,-0.008868,0.009292,0.10792,0.0,0.0,0.0,0.0,0.0,0.0,0.0,0.0,0.0,2.409,0.125,-9.909,0.0,0.0,0.0,0.0,0.0,0.0,0.0,0.0,0.0,737,1698454861536988496,,-0.0047,0.1925,0.1278,0.0,0.0,0.0,0.0,0.0,0.0,0.0,0.0,0.0,
1698454861565077153,0,1698454861561850547,IMU1_Frame,738,1698454861561850547,,0.3783127807020675,-0.43865467784651824,-0.32504460129034285,-0.747534294017899,0.0,0.0,0.0,0.0,0.0,0.0,0.0,0.0,0.0,-0.009823,0.010441,0.10632,0.0,0.0,0.0,0.0,0.0,0.0,0.0,0.0,0.0,2.431,0.094,-9.988,0.0,0.0,0.0,0.0,0.0,0.0,0.0,0.0,0.0,738,1698454861561850547,,-0.0064,0.183,0.1284,0.0,0.0,0.0,0.0,0.0,0.0,0.0,0.0,0.0,
1698454861590197392,0,1698454861586981058,IMU1_Frame,739,1698454861586981058,,0.40897638265680736,-0.41590501754089143,-0.3815635887916117,-0.717056875374422,0.0,0.0,0.0,0.0,0.0,0.0,0.0,0.0,0.0,-0.010277,0.008911,0.10708,0.0,0.0,0.0,0.0,0.0,0.0,0.0,0.0,0.0,2.496,0.132,-9.925,0.0,0.0,0.0,0.0,0.0,0.0,0.0,0.0,0.0,739,1698454861586981058,,-0.0058,0.2019,0.1284,0.0,0.0,0.0,0.0,0.0,0.0,0.0,0.0,0.0,
1698454861615188715,0,1698454861611898660,IMU1_Frame,740,1698454861611898660,,0.4390289995965996,-0.3901311851525018,-0.4355900747272933,-0.6821381697895114,0.0,0.0,0.0,0.0,0.0,0.0,0.0,0.0,0.0,-0.012083,0.007906,0.10532,0.0,0.0,0.0,0.0,0.0,0.0,0.0,0.0,0.0,2.521,0.145,-9.795,0.0,0.0,0.0,0.0,0.0,0.0,0.0,0.0,0.0,740,1698454861611898660,,0.0025,0.1979,0.1188,0.0,0.0,0.0,0.0,0.0,0.0,0.0,0.0,0.0,
1698454861640829993,0,1698454861636950492,IMU1_Frame,741,1698454861636950492,,0.4674535760748646,-0.3633894081541824,-0.4857198882113767,-0.6430485848301835,0.0,0.0,0.0,0.0,0.0,0.0,0.0,0.0,0.0,-0.010943,0.011725,0.10551,0.0,0.0,0.0,0.0,0.0,0.0,0.0,0.0,0.0,2.531,0.185,-9.886,0.0,0.0,0.0,0.0,0.0,0.0,0.0,0.0,0.0,741,1698454861636950492,,0.0028,0.2074,0.1165,0.0,0.0,0.0,0.0,0.0,0.0,0.0,0.0,0.0,
1698454861664453380,0,1698454861661889314,IMU1_Frame,742,1698454861661889314,,0.4945237011546462,-0.3340402755230571,-0.5331082916353664,-0.5997157265858644,0.0,0.0,0.0,0.0,0.0,0.0,0.0,0.0,0.0,-0.010219,0.011791,0.10576,0.0,0.0,0.0,0.0,0.0,0.0,0.0,0.0,0.0,2.704,0.214,-9.894,0.0,0.0,0.0,0.0,0.0,0.0,0.0,0.0,0.0,742,1698454861661889314,,0.0045,0.2149,0.1136,0.0,0.0,0.0,0.0,0.0,0.0,0.0,0.0,0.0,
1698454861692256798,0,1698454861688369750,IMU1_Frame,743,1698454861688369750,,0.5195458751537316,-0.30208442509141875,-0.5762921525611302,-0.553809027214607,0.0,0.0,0.0,0.0,0.0,0.0,0.0,0.0,0.0,-0.011755,0.013229,0.10577,0.0,0.0,0.0,0.0,0.0,0.0,0.0,0.0,0.0,2.672,0.234,-9.927,0.0,0.0,0.0,0.0,0.0,0.0,0.0,0.0,0.0,743,1698454861688369750,,-0.0014,0.2056,0.1219,0.0,0.0,0.0,0.0,0.0,0.0,0.0,0.0,0.0,
1698454861713107115,0,1698454861711766719,IMU1_Frame,744,1698454861711766719,,0.5426998800456675,-0.26856897584428635,-0.6154835094135601,-0.5045072794839905,0.0,0.0,0.0,0.0,0.0,0.0,0.0,0.0,0.0,-0.013118,0.015064,0.10586,0.0,0.0,0.0,0.0,0.0,0.0,0.0,0.0,0.0,2.679,0.301,-9.903,0.0,0.0,0.0,0.0,0.0,0.0,0.0,0.0,0.0,744,1698454861711766719,,0.0055,0.2035,0.1153,0.0,0.0,0.0,0.0,0.0,0.0,0.0,0.0,0.0,
1698454861737648007,0,1698454861736837387,IMU1_Frame,745,1698454861736837387,,0.5630064584840613,-0.23204834449097084,-0.650430504001329,-0.4540016002051227,0.0,0.0,0.0,0.0,0.0,0.0,0.0,0.0,0.0,-0.012085,0.007718,0.10272,0.0,0.0,0.0,0.0,0.0,0.0,0.0,0.0,0.0,2.663,0.189,-9.862,0.0,0.0,0.0,0.0,0.0,0.0,0.0,0.0,0.0,745,1698454861736837387,,0.0028,0.2055,0.1165,0.0,0.0,0.0,0.0,0.0,0.0,0.0,0.0,0.0,
1698454861764646160,0,1698454861761782646,IMU1_Frame,746,1698454861761782646,,0.5812610373534257,-0.19303587650971676,-0.681739514685537,-0.4001299675746284,0.0,0.0,0.0,0.0,0.0,0.0,0.0,0.0,0.0,-0.013047,0.007526,0.10578,0.0,0.0,0.0,0.0,0.0,0.0,0.0,0.0,0.0,2.648,0.247,-9.775,0.0,0.0,0.0,0.0,0.0,0.0,0.0,0.0,0.0,746,1698454861761782646,,-0.0004,0.1923,0.1178,0.0,0.0,0.0,0.0,0.0,0.0,0.0,0.0,0.0,
1698454861790050430,0,1698454861786820650,IMU1_Frame,747,1698454861786820650,,0.5962989023483172,-0.1524562688558857,-0.708407243624698,-0.3454618391730002,0.0,0.0,0.0,0.0,0.0,0.0,0.0,0.0,0.0,-0.014154,-0.000991,0.10131,0.0,0.0,0.0,0.0,0.0,0.0,0.0,0.0,0.0,2.637,0.178,-9.848,0.0,0.0,0.0,0.0,0.0,0.0,0.0,0.0,0.0,747,1698454861786820650,,-0.0003,0.198,0.1224,0.0,0.0,0.0,0.0,0.0,0.0,0.0,0.0,0.0,
1698454861814472228,0,1698454861811781167,IMU1_Frame,748,1698454861811781167,,0.6086962897770316,-0.10874090870696865,-0.7313953889455658,-0.2876195866321059,0.0,0.0,0.0,0.0,0.0,0.0,0.0,0.0,0.0,-0.016619,0.002274,0.10655,0.0,0.0,0.0,0.0,0.0,0.0,0.0,0.0,0.0,2.637,0.037,-9.822,0.0,0.0,0.0,0.0,0.0,0.0,0.0,0.0,0.0,748,1698454861811781167,,-0.0015,0.2037,0.1207,0.0,0.0,0.0,0.0,0.0,0.0,0.0,0.0,0.0,
1698454861839541540,0,1698454861836750507,IMU1_Frame,749,1698454861836750507,,0.6178333675306305,-0.06432216644836083,-0.7495715800877689,-0.2286635851942227,0.0,0.0,0.0,0.0,0.0,0.0,0.0,0.0,0.0,-0.015531,0.001657,0.10462,0.0,0.0,0.0,0.0,0.0,0.0,0.0,0.0,0.0,2.67,0.124,-9.682,0.0,0.0,0.0,0.0,0.0,0.0,0.0,0.0,0.0,749,1698454861836750507,,0.0008,0.1904,0.1218,0.0,0.0,0.0,0.0,0.0,0.0,0.0,0.0,0.0,
1698454861863049040,0,1698454861861698865,IMU1_Frame,750,1698454861861698865,,0.6231534012269004,-0.0176770238747741,-0.7636459120258099,-0.16796512260747876,0.0,0.0,0.0,0.0,0.0,0.0,0.0,0.0,0.0,-0.01483,-0.002649,0.10884,0.0,0.0,0.0,0.0,0.0,0.0,0.0,0.0,0.0,2.641,0.113,-9.828,0.0,0.0,0.0,0.0,0.0,0.0,0.0,0.0,0.0,750,1698454861861698865,,0.0012,0.1998,0.1195,0.0,0.0,0.0,0.0,0.0,0.0,0.0,0.0,0.0,
1698454861888776629,0,1698454861886803150,IMU1_Frame,751,1698454861886803150,,0.6274674048021329,0.028890571682046423,-0.7712335410533727,-0.1031931002201058,0.0,0.0,0.0,0.0,0.0,0.0,0.0,0.0,0.0,-0.017423,0.001473,0.10888,0.0,0.0,0.0,0.0,0.0,0.0,0.0,0.0,0.0,2.64,0.188,-9.678,0.0,0.0,0.0,0.0,0.0,0.0,0.0,0.0,0.0,751,1698454861886803150,,-0.0003,0.1941,0.1166,0.0,0.0,0.0,0.0,0.0,0.0,0.0,0.0,0.0,
1698454861914099135,0,1698454861911906242,IMU1_Frame,752,1698454861911906242,,0.6262627548285739,0.07762364413580802,-0.7747475931602608,-0.03918799150232155,0.0,0.0,0.0,0.0,0.0,0.0,0.0,0.0,0.0,-0.016853,0.001967,0.10965,0.0,0.0,0.0,0.0,0.0,0.0,0.0,0.0,0.0,2.656,0.205,-9.697,0.0,0.0,0.0,0.0,0.0,0.0,0.0,0.0,0.0,752,1698454861911906242,,0.0012,0.1999,0.1206,0.0,0.0,0.0,0.0,0.0,0.0,0.0,0.0,0.0,
1698454861938375071,0,1698454861936685323,IMU1_Frame,753,1698454861936685323,,0.6235502349056223,0.1266851435157867,-0.7709188596155091,0.028637228403788434,0.0,0.0,0.0,0.0,0.0,0.0,0.0,0.0,0.0,-0.016279,-0.001854,0.11097,0.0,0.0,0.0,0.0,0.0,0.0,0.0,0.0,0.0,2.657,0.214,-9.647,0.0,0.0,0.0,0.0,0.0,0.0,0.0,0.0,0.0,753,1698454861936685323,,-0.002,0.1885,0.1207,0.0,0.0,0.0,0.0,0.0,0.0,0.0,0.0,0.0,
1698454861963184794,0,1698454861961926221,IMU1_Frame,754,1698454861961926221,,0.616698454519948,0.17527354930881148,-0.7615737730155562,0.09469734610985285,0.0,0.0,0.0,0.0,0.0,0.0,0.0,0.0,0.0,-0.016647,0.003569,0.11337,0.0,0.0,0.0,0.0,0.0,0.0,0.0,0.0,0.0,2.67,0.233,-9.717,0.0,0.0,0.0,0.0,0.0,0.0,0.0,0.0,0.0,754,1698454861961926221,,0.0039,0.196,0.1159,0.0,0.0,0.0,0.0,0.0,0.0,0.0,0.0,0.0,
1698454861990358809,0,1698454861986902475,IMU1_Frame,755,1698454861986902475,,0.6053984673661993,0.2262961699049165,-0.7455084035373873,0.16278808141924328,0.0,0.0,0.0,0.0,0.0,0.0,0.0,0.0,0.0,-0.01796,0.004097,0.11705,0.0,0.0,0.0,0.0,0.0,0.0,0.0,0.0,0.0,2.678,0.256,-9.763,0.0,0.0,0.0,0.0,0.0,0.0,0.0,0.0,0.0,755,1698454861986902475,,-0.0033,0.1905,0.1225,0.0,0.0,0.0,0.0,0.0,0.0,0.0,0.0,0.0,
1698454862014395912,0,1698454862011857271,IMU1_Frame,756,1698454862011857271,,0.590129530370211,0.27644590687054205,-0.7230993348123704,0.22902434358265317,0.0,0.0,0.0,0.0,0.0,0.0,0.0,0.0,0.0,-0.019458,0.008253,0.11836,0.0,0.0,0.0,0.0,0.0,0.0,0.0,0.0,0.0,2.822,0.327,-9.724,0.0,0.0,0.0,0.0,0.0,0.0,0.0,0.0,0.0,756,1698454862011857271,,0.0014,0.2016,0.109,0.0,0.0,0.0,0.0,0.0,0.0,0.0,0.0,0.0,
1698454862040813564,0,1698454862036867380,IMU1_Frame,757,1698454862036867380,,0.5675994532047985,0.3275305816094575,-0.6959314681238912,0.29365621142265896,0.0,0.0,0.0,0.0,0.0,0.0,0.0,0.0,0.0,-0.019902,0.01059,0.12062,0.0,0.0,0.0,0.0,0.0,0.0,0.0,0.0,0.0,2.88,0.358,-9.805,0.0,0.0,0.0,0.0,0.0,0.0,0.0,0.0,0.0,757,1698454862036867380,,0.0028,0.2035,0.1119,0.0,0.0,0.0,0.0,0.0,0.0,0.0,0.0,0.0,
1698454862062749153,0,1698454862061481714,IMU1_Frame,758,1698454862061481714,,0.5420889621552777,0.37706733926915265,-0.6610503520207067,0.35633160238630956,0.0,0.0,0.0,0.0,0.0,0.0,0.0,0.0,0.0,-0.019976,0.010541,0.12276,0.0,0.0,0.0,0.0,0.0,0.0,0.0,0.0,0.0,2.836,0.478,-9.803,0.0,0.0,0.0,0.0,0.0,0.0,0.0,0.0,0.0,758,1698454862061481714,,-0.0057,0.1999,0.1179,0.0,0.0,0.0,0.0,0.0,0.0,0.0,0.0,0.0,
1698454862087922613,0,1698454862086481809,IMU1_Frame,759,1698454862086481809,,0.5076270617369054,0.4250730189869899,-0.6237525823674325,0.4154039127302507,0.0,0.0,0.0,0.0,0.0,0.0,0.0,0.0,0.0,-0.01618,0.012201,0.12682,0.0,0.0,0.0,0.0,0.0,0.0,0.0,0.0,0.0,2.782,0.499,-9.929,0.0,0.0,0.0,0.0,0.0,0.0,0.0,0.0,0.0,759,1698454862086481809,,-0.0029,0.2018,0.1178,0.0,0.0,0.0,0.0,0.0,0.0,0.0,0.0,0.0,
1698454862113448892,0,1698454862111678361,IMU1_Frame,760,1698454862111678361,,0.47231777939697783,0.4686509630950938,-0.5803832801333795,0.46950765509964554,0.0,0.0,0.0,0.0,0.0,0.0,0.0,0.0,0.0,-0.0156,0.009047,0.12426,0.0,0.0,0.0,0.0,0.0,0.0,0.0,0.0,0.0,2.713,0.439,-9.938,0.0,0.0,0.0,0.0,0.0,0.0,0.0,0.0,0.0,760,1698454862111678361,,0.0017,0.213,0.1136,0.0,0.0,0.0,0.0,0.0,0.0,0.0,0.0,0.0,
1698454862139082260,0,1698454862136565446,IMU1_Frame,761,1698454862136565446,,0.4319211405246434,0.5083596602756563,-0.5345082953106559,0.5189561314951461,0.0,0.0,0.0,0.0,0.0,0.0,0.0,0.0,0.0,-0.012424,0.013379,0.12699,0.0,0.0,0.0,0.0,0.0,0.0,0.0,0.0,0.0,2.667,0.401,-9.926,0.0,0.0,0.0,0.0,0.0,0.0,0.0,0.0,0.0,761,1698454862136565446,,0.0017,0.213,0.1148,0.0,0.0,0.0,0.0,0.0,0.0,0.0,0.0,0.0,
1698454862163493674,0,1698454862161472558,IMU1_Frame,762,1698454862161472558,,0.39045935961046163,0.544250444385835,-0.48394305000932225,0.5631448007627202,0.0,0.0,0.0,0.0,0.0,0.0,0.0,0.0,0.0,-0.009737,-0.001023,0.12489,0.0,0.0,0.0,0.0,0.0,0.0,0.0,0.0,0.0,2.731,0.307,-9.864,0.0,0.0,0.0,0.0,0.0,0.0,0.0,0.0,0.0,762,1698454862161472558,,0.0016,0.2073,0.109,0.0,0.0,0.0,0.0,0.0,0.0,0.0,0.0,0.0,
1698454862187906664,0,1698454862186455011,IMU1_Frame,763,1698454862186455011,,0.3464598883532272,0.5757712533584111,-0.43158778597405717,0.6018180726485084,0.0,0.0,0.0,0.0,0.0,0.0,0.0,0.0,0.0,-0.006526,0.008656,0.12674,0.0,0.0,0.0,0.0,0.0,0.0,0.0,0.0,0.0,2.699,0.235,-9.871,0.0,0.0,0.0,0.0,0.0,0.0,0.0,0.0,0.0,763,1698454862186455011,,-0.0055,0.2075,0.1214,0.0,0.0,0.0,0.0,0.0,0.0,0.0,0.0,0.0,
1698454862213184204,0,1698454862211433887,IMU1_Frame,764,1698454862211433887,,0.301127167676145,0.6030969040916309,-0.37741893635969836,0.6349421230628403,0.0,0.0,0.0,0.0,0.0,0.0,0.0,0.0,0.0,-0.004739,-0.006114,0.12227,0.0,0.0,0.0,0.0,0.0,0.0,0.0,0.0,0.0,2.651,0.198,-9.741,0.0,0.0,0.0,0.0,0.0,0.0,0.0,0.0,0.0,764,1698454862211433887,,-0.0014,0.2036,0.1184,0.0,0.0,0.0,0.0,0.0,0.0,0.0,0.0,0.0,
1698454862238590808,0,1698454862236659049,IMU1_Frame,765,1698454862236659049,,0.2564179946611196,0.6276990216678605,-0.31996864410975756,0.6617127904141981,0.0,0.0,0.0,0.0,0.0,0.0,0.0,0.0,0.0,-0.004677,0.005078,0.12252,0.0,0.0,0.0,0.0,0.0,0.0,0.0,0.0,0.0,2.64,0.2,-9.837,0.0,0.0,0.0,0.0,0.0,0.0,0.0,0.0,0.0,765,1698454862236659049,,-0.0096,0.2153,0.1326,0.0,0.0,0.0,0.0,0.0,0.0,0.0,0.0,0.0,
1698454862263284267,0,1698454862261502027,IMU1_Frame,766,1698454862261502027,,0.20904007829366722,0.6483191468532021,-0.2619301211529028,0.6836498673468309,0.0,0.0,0.0,0.0,0.0,0.0,0.0,0.0,0.0,-0.002665,-0.004111,0.12094,0.0,0.0,0.0,0.0,0.0,0.0,0.0,0.0,0.0,2.769,0.21,-9.764,0.0,0.0,0.0,0.0,0.0,0.0,0.0,0.0,0.0,766,1698454862261502027,,-0.0098,0.2058,0.1291,0.0,0.0,0.0,0.0,0.0,0.0,0.0,0.0,0.0,
1698454862289337707,0,1698454862286713600,IMU1_Frame,767,1698454862286713600,,0.16391876490804588,0.666278162720567,-0.20332951824577356,0.6984705830617837,0.0,0.0,0.0,0.0,0.0,0.0,0.0,0.0,0.0,-0.001295,0.007517,0.11727,0.0,0.0,0.0,0.0,0.0,0.0,0.0,0.0,0.0,2.78,0.25,-9.709,0.0,0.0,0.0,0.0,0.0,0.0,0.0,0.0,0.0,767,1698454862286713600,,-0.0009,0.2226,0.1207,0.0,0.0,0.0,0.0,0.0,0.0,0.0,0.0,0.0,
1698454862314701516,0,1698454862311704158,IMU1_Frame,768,1698454862311704158,,0.11609843164546574,0.6789659264945843,-0.14720708227493906,0.709828500242779,0.0,0.0,0.0,0.0,0.0,0.0,0.0,0.0,0.0,0.001348,0.002973,0.11775,0.0,0.0,0.0,0.0,0.0,0.0,0.0,0.0,0.0,2.847,0.222,-9.805,0.0,0.0,0.0,0.0,0.0,0.0,0.0,0.0,0.0,768,1698454862311704158,,0.0036,0.2319,0.1165,0.0,0.0,0.0,0.0,0.0,0.0,0.0,0.0,0.0,
1698454862336919330,0,1698454862336393833,IMU1_Frame,769,1698454862336393833,,0.07102913283864329,0.6921664639537523,-0.08822427335709007,0.7127951501354107,0.0,0.0,0.0,0.0,0.0,0.0,0.0,0.0,0.0,-0.002266,0.024032,0.1181,0.0,0.0,0.0,0.0,0.0,0.0,0.0,0.0,0.0,2.931,0.297,-9.833,0.0,0.0,0.0,0.0,0.0,0.0,0.0,0.0,0.0,769,1698454862336393833,,-0.0022,0.2226,0.1178,0.0,0.0,0.0,0.0,0.0,0.0,0.0,0.0,0.0,
1698454862363238659,0,1698454862361320018,IMU1_Frame,770,1698454862361320018,,0.02454495045517932,0.700666352783096,-0.03252703732811241,0.7123245042306507,0.0,0.0,0.0,0.0,0.0,0.0,0.0,0.0,0.0,0.001032,0.014548,0.11512,0.0,0.0,0.0,0.0,0.0,0.0,0.0,0.0,0.0,2.716,0.343,-10.122,0.0,0.0,0.0,0.0,0.0,0.0,0.0,0.0,0.0,770,1698454862361320018,,-0.0037,0.2227,0.1243,0.0,0.0,0.0,0.0,0.0,0.0,0.0,0.0,0.0,
1698454862387214622,0,1698454862386302471,IMU1_Frame,771,1698454862386302471,,-0.020058102144389384,0.7065238421105672,0.0197199339320224,0.7071300144056991,0.0,0.0,0.0,0.0,0.0,0.0,0.0,0.0,0.0,0.002317,0.002646,0.1108,0.0,0.0,0.0,0.0,0.0,0.0,0.0,0.0,0.0,2.671,0.228,-10.027,0.0,0.0,0.0,0.0,0.0,0.0,0.0,0.0,0.0,771,1698454862386302471,,-0.0052,0.2189,0.126,0.0,0.0,0.0,0.0,0.0,0.0,0.0,0.0,0.0,
1698454862413271698,0,1698454862411550760,IMU1_Frame,772,1698454862411550760,,-0.0662251779941053,0.7067834998870812,0.06881010759741091,0.7009539779325388,0.0,0.0,0.0,0.0,0.0,0.0,0.0,0.0,0.0,0.002387,0.009757,0.11118,0.0,0.0,0.0,0.0,0.0,0.0,0.0,0.0,0.0,2.859,0.272,-9.972,0.0,0.0,0.0,0.0,0.0,0.0,0.0,0.0,0.0,772,1698454862411550760,,-0.0008,0.2245,0.1184,0.0,0.0,0.0,0.0,0.0,0.0,0.0,0.0,0.0,
1698454862437660958,0,1698454862436235427,IMU1_Frame,773,1698454862436235427,,-0.11128338967396789,0.705219229860514,0.11628965275174108,0.6904770536958449,0.0,0.0,0.0,0.0,0.0,0.0,0.0,0.0,0.0,0.002658,-0.002816,0.10412,0.0,0.0,0.0,0.0,0.0,0.0,0.0,0.0,0.0,2.72,0.008,-10.002,0.0,0.0,0.0,0.0,0.0,0.0,0.0,0.0,0.0,773,1698454862436235427,,-0.008,0.2191,0.1319,0.0,0.0,0.0,0.0,0.0,0.0,0.0,0.0,0.0,
1698454862463765445,0,1698454862461391687,IMU1_Frame,774,1698454862461391687,,-0.15695383538617283,0.6994367577916241,0.1621537842505782,0.6781296820378298,0.0,0.0,0.0,0.0,0.0,0.0,0.0,0.0,0.0,-0.000316,-0.009564,0.10749,0.0,0.0,0.0,0.0,0.0,0.0,0.0,0.0,0.0,2.636,-0.117,-9.806,0.0,0.0,0.0,0.0,0.0,0.0,0.0,0.0,0.0,774,1698454862461391687,,-0.0097,0.2115,0.1326,0.0,0.0,0.0,0.0,0.0,0.0,0.0,0.0,0.0,
1698454862488435533,0,1698454862486510515,IMU1_Frame,775,1698454862486510515,,-0.204301181247079,0.6910959218727346,0.2089778778352769,0.6610413759269442,0.0,0.0,0.0,0.0,0.0,0.0,0.0,0.0,0.0,-0.006303,0.0012,0.10571,0.0,0.0,0.0,0.0,0.0,0.0,0.0,0.0,0.0,2.589,-0.288,-9.73,0.0,0.0,0.0,0.0,0.0,0.0,0.0,0.0,0.0,775,1698454862486510515,,-0.0096,0.2134,0.1337,0.0,0.0,0.0,0.0,0.0,0.0,0.0,0.0,0.0,
1698454862513626659,0,1698454862511506795,IMU1_Frame,776,1698454862511506795,,-0.252227504191998,0.679474422445805,0.25518997916850716,0.6399795855361264,0.0,0.0,0.0,0.0,0.0,0.0,0.0,0.0,0.0,-0.011194,-0.00336,0.10282,0.0,0.0,0.0,0.0,0.0,0.0,0.0,0.0,0.0,2.725,-0.053,-9.639,0.0,0.0,0.0,0.0,0.0,0.0,0.0,0.0,0.0,776,1698454862511506795,,-0.0078,0.2285,0.1331,0.0,0.0,0.0,0.0,0.0,0.0,0.0,0.0,0.0,
1698454862537805938,0,1698454862536183834,IMU1_Frame,777,1698454862536183834,,-0.3024183555761234,0.6596976179256231,0.302412888081131,0.617971387878372,0.0,0.0,0.0,0.0,0.0,0.0,0.0,0.0,0.0,-0.017549,0.005915,0.10181,0.0,0.0,0.0,0.0,0.0,0.0,0.0,0.0,0.0,2.8,-0.298,-9.423,0.0,0.0,0.0,0.0,0.0,0.0,0.0,0.0,0.0,777,1698454862536183834,,0.0026,0.2395,0.1125,0.0,0.0,0.0,0.0,0.0,0.0,0.0,0.0,0.0,
1698454862563415876,0,1698454862561470746,IMU1_Frame,778,1698454862561470746,,-0.3535283347193038,0.6445405777799125,0.34922817707450116,0.581054937577294,0.0,0.0,0.0,0.0,0.0,0.0,0.0,0.0,0.0,-0.024794,0.026533,0.09967,0.0,0.0,0.0,0.0,0.0,0.0,0.0,0.0,0.0,2.824,-0.009,-9.531,0.0,0.0,0.0,0.0,0.0,0.0,0.0,0.0,0.0,778,1698454862561470746,,-0.0008,0.2225,0.116,0.0,0.0,0.0,0.0,0.0,0.0,0.0,0.0,0.0,
1698454862590297384,0,1698454862587095737,IMU1_Frame,779,1698454862587095737,,-0.4019640540735379,0.6210611410730985,0.39209210074902506,0.5467830857039774,0.0,0.0,0.0,0.0,0.0,0.0,0.0,0.0,0.0,-0.020518,0.013693,0.09562,0.0,0.0,0.0,0.0,0.0,0.0,0.0,0.0,0.0,3.038,0.075,-9.548,0.0,0.0,0.0,0.0,0.0,0.0,0.0,0.0,0.0,779,1698454862587095737,,-0.0066,0.219,0.129,0.0,0.0,0.0,0.0,0.0,0.0,0.0,0.0,0.0,
1698454862612388184,0,1698454862611428499,IMU1_Frame,780,1698454862611428499,,-0.44481995854309864,0.6032218147223556,0.4258716227850014,0.506845151531761,0.0,0.0,0.0,0.0,0.0,0.0,0.0,0.0,0.0,-0.014127,0.035101,0.08795,0.0,0.0,0.0,0.0,0.0,0.0,0.0,0.0,0.0,2.918,0.355,-9.645,0.0,0.0,0.0,0.0,0.0,0.0,0.0,0.0,0.0,780,1698454862611428499,,-0.0006,0.2282,0.116,0.0,0.0,0.0,0.0,0.0,0.0,0.0,0.0,0.0,
1698454862641323806,0,1698454862637237787,IMU1_Frame,781,1698454862637237787,,-0.48221514125661213,0.584101698728037,0.45250904857215457,0.4706690175125305,0.0,0.0,0.0,0.0,0.0,0.0,0.0,0.0,0.0,-0.009157,0.023043,0.08181,0.0,0.0,0.0,0.0,0.0,0.0,0.0,0.0,0.0,2.678,0.154,-9.755,0.0,0.0,0.0,0.0,0.0,0.0,0.0,0.0,0.0,781,1698454862637237787,,-0.0051,0.2208,0.1249,0.0,0.0,0.0,0.0,0.0,0.0,0.0,0.0,0.0,
1698454862666497765,0,1698454862662349462,IMU1_Frame,782,1698454862662349462,,-0.514685858339192,0.5697358442559703,0.47050220355829575,0.43488758483356815,0.0,0.0,0.0,0.0,0.0,0.0,0.0,0.0,0.0,-0.003382,0.02153,0.07353,0.0,0.0,0.0,0.0,0.0,0.0,0.0,0.0,0.0,2.652,-0.016,-9.518,0.0,0.0,0.0,0.0,0.0,0.0,0.0,0.0,0.0,782,1698454862662349462,,-0.0124,0.2134,0.1315,0.0,0.0,0.0,0.0,0.0,0.0,0.0,0.0,0.0,
1698454862689872779,0,1698454862687225818,IMU1_Frame,783,1698454862687225818,,-0.5428062951308092,0.55905571888434,0.48148103785225077,0.4012406252335347,0.0,0.0,0.0,0.0,0.0,0.0,0.0,0.0,0.0,-0.00087,0.021355,0.06588,0.0,0.0,0.0,0.0,0.0,0.0,0.0,0.0,0.0,2.733,0.445,-9.801,0.0,0.0,0.0,0.0,0.0,0.0,0.0,0.0,0.0,783,1698454862687225818,,-0.0045,0.2359,0.1191,0.0,0.0,0.0,0.0,0.0,0.0,0.0,0.0,0.0,
1698454862713535718,0,1698454862711296081,IMU1_Frame,784,1698454862711296081,,-0.5671800047829346,0.5457957759203877,0.4905684610745498,0.3738400702985702,0.0,0.0,0.0,0.0,0.0,0.0,0.0,0.0,0.0,-0.001729,0.015754,0.05631,0.0,0.0,0.0,0.0,0.0,0.0,0.0,0.0,0.0,2.619,0.282,-9.851,0.0,0.0,0.0,0.0,0.0,0.0,0.0,0.0,0.0,784,1698454862711296081,,-0.0032,0.232,0.1138,0.0,0.0,0.0,0.0,0.0,0.0,0.0,0.0,0.0,
1698454862741094930,0,1698454862737109184,IMU1_Frame,785,1698454862737109184,,-0.5901500755133415,0.5354051197664145,0.4956064417200108,0.34559875726793127,0.0,0.0,0.0,0.0,0.0,0.0,0.0,0.0,0.0,-0.000112,0.022801,0.05276,0.0,0.0,0.0,0.0,0.0,0.0,0.0,0.0,0.0,2.706,0.421,-10.163,0.0,0.0,0.0,0.0,0.0,0.0,0.0,0.0,0.0,785,1698454862737109184,,-0.0105,0.2246,0.1239,0.0,0.0,0.0,0.0,0.0,0.0,0.0,0.0,0.0,
1698454862764347110,0,1698454862762162446,IMU1_Frame,786,1698454862762162446,,-0.609529679673702,0.5221655101019693,0.5008461447907324,0.32399056916071617,0.0,0.0,0.0,0.0,0.0,0.0,0.0,0.0,0.0,0.001629,0.018177,0.04547,0.0,0.0,0.0,0.0,0.0,0.0,0.0,0.0,0.0,3.11,0.196,-10.054,0.0,0.0,0.0,0.0,0.0,0.0,0.0,0.0,0.0,786,1698454862762162446,,-0.0033,0.2301,0.1161,0.0,0.0,0.0,0.0,0.0,0.0,0.0,0.0,0.0,
1698454862789860872,0,1698454862787025690,IMU1_Frame,787,1698454862787025690,,-0.6280752726840987,0.5113190916261946,0.5023582814879862,0.30283724242866045,0.0,0.0,0.0,0.0,0.0,0.0,0.0,0.0,0.0,0.005942,0.013797,0.04716,0.0,0.0,0.0,0.0,0.0,0.0,0.0,0.0,0.0,2.716,0.139,-10.066,0.0,0.0,0.0,0.0,0.0,0.0,0.0,0.0,0.0,787,1698454862787025690,,-0.0093,0.2209,0.1256,0.0,0.0,0.0,0.0,0.0,0.0,0.0,0.0,0.0,
1698454862814145787,0,1698454862812220335,IMU1_Frame,788,1698454862812220335,,-0.6439591517011052,0.5005012053230178,0.5022586789502813,0.2873175487674183,0.0,0.0,0.0,0.0,0.0,0.0,0.0,0.0,0.0,0.009424,0.010845,0.04231,0.0,0.0,0.0,0.0,0.0,0.0,0.0,0.0,0.0,2.915,-0.154,-10.032,0.0,0.0,0.0,0.0,0.0,0.0,0.0,0.0,0.0,788,1698454862812220335,,-0.0076,0.2303,0.1238,0.0,0.0,0.0,0.0,0.0,0.0,0.0,0.0,0.0,
1698454862840093065,0,1698454862837122678,IMU1_Frame,789,1698454862837122678,,-0.6577061905283306,0.49131566348317623,0.4999940765694547,0.2757488153233949,0.0,0.0,0.0,0.0,0.0,0.0,0.0,0.0,0.0,0.015903,-0.000176,0.04342,0.0,0.0,0.0,0.0,0.0,0.0,0.0,0.0,0.0,3.01,-0.066,-9.719,0.0,0.0,0.0,0.0,0.0,0.0,0.0,0.0,0.0,789,1698454862837122678,,-0.0134,0.2209,0.1263,0.0,0.0,0.0,0.0,0.0,0.0,0.0,0.0,0.0,
1698454862865876203,0,1698454862862137079,IMU1_Frame,790,1698454862862137079,,-0.6699240003489383,0.48279423141243744,0.49616571322858677,0.2681998301411047,0.0,0.0,0.0,0.0,0.0,0.0,0.0,0.0,0.0,0.020651,0.007865,0.04116,0.0,0.0,0.0,0.0,0.0,0.0,0.0,0.0,0.0,2.856,-0.098,-9.801,0.0,0.0,0.0,0.0,0.0,0.0,0.0,0.0,0.0,790,1698454862862137079,,-0.0134,0.2209,0.1263,0.0,0.0,0.0,0.0,0.0,0.0,0.0,0.0,0.0,
1698454862888980648,0,1698454862887208461,IMU1_Frame,791,1698454862887208461,,-0.6798855155955252,0.4758490486120303,0.490993466825447,0.2650448719616377,0.0,0.0,0.0,0.0,0.0,0.0,0.0,0.0,0.0,0.025959,0.000292,0.03908,0.0,0.0,0.0,0.0,0.0,0.0,0.0,0.0,0.0,2.83,0.072,-9.643,0.0,0.0,0.0,0.0,0.0,0.0,0.0,0.0,0.0,791,1698454862887208461,,-0.0033,0.2281,0.1103,0.0,0.0,0.0,0.0,0.0,0.0,0.0,0.0,0.0,
1698454862914623044,0,1698454862912081480,IMU1_Frame,792,1698454862912081480,,-0.6893615466790257,0.4696632038778349,0.48460341578392097,0.2633565307602316,0.0,0.0,0.0,0.0,0.0,0.0,0.0,0.0,0.0,0.025428,0.011958,0.03773,0.0,0.0,0.0,0.0,0.0,0.0,0.0,0.0,0.0,2.732,-0.023,-9.633,0.0,0.0,0.0,0.0,0.0,0.0,0.0,0.0,0.0,792,1698454862912081480,,-0.0176,0.2229,0.1305,0.0,0.0,0.0,0.0,0.0,0.0,0.0,0.0,0.0,
1698454862938253223,0,1698454862936981439,IMU1_Frame,793,1698454862936981439,,-0.7005113610869163,0.4667584862016047,0.4742830300284629,0.25782931558293104,0.0,0.0,0.0,0.0,0.0,0.0,0.0,0.0,0.0,0.018855,0.013219,0.03028,0.0,0.0,0.0,0.0,0.0,0.0,0.0,0.0,0.0,2.609,-0.087,-9.814,0.0,0.0,0.0,0.0,0.0,0.0,0.0,0.0,0.0,793,1698454862936981439,,-0.0132,0.2285,0.1263,0.0,0.0,0.0,0.0,0.0,0.0,0.0,0.0,0.0,
1698454862962583491,0,1698454862961879014,IMU1_Frame,794,1698454862961879014,,-0.7096557012079306,0.4637049875163934,0.46570030864706297,0.25394820893546777,0.0,0.0,0.0,0.0,0.0,0.0,0.0,0.0,0.0,0.014228,0.008492,0.02457,0.0,0.0,0.0,0.0,0.0,0.0,0.0,0.0,0.0,2.716,-0.221,-9.752,0.0,0.0,0.0,0.0,0.0,0.0,0.0,0.0,0.0,794,1698454862961879014,,-0.0173,0.2285,0.1281,0.0,0.0,0.0,0.0,0.0,0.0,0.0,0.0,0.0,
1698454862989647583,0,1698454862987136840,IMU1_Frame,795,1698454862987136840,,-0.7200003279054957,0.46268980546479255,0.4550197950134154,0.24591595694643462,0.0,0.0,0.0,0.0,0.0,0.0,0.0,0.0,0.0,0.008864,0.024207,0.01742,0.0,0.0,0.0,0.0,0.0,0.0,0.0,0.0,0.0,2.85,-0.009,-9.979,0.0,0.0,0.0,0.0,0.0,0.0,0.0,0.0,0.0,795,1698454862987136840,,-0.0099,0.2396,0.1157,0.0,0.0,0.0,0.0,0.0,0.0,0.0,0.0,0.0,
1698454863015666165,0,1698454863012104749,IMU1_Frame,796,1698454863012104749,,-0.7288443236467744,0.46146638267472007,0.4461320512683333,0.23832944085885438,0.0,0.0,0.0,0.0,0.0,0.0,0.0,0.0,0.0,0.002588,0.022574,0.01224,0.0,0.0,0.0,0.0,0.0,0.0,0.0,0.0,0.0,2.924,-0.186,-9.988,0.0,0.0,0.0,0.0,0.0,0.0,0.0,0.0,0.0,796,1698454863012104749,,-0.0145,0.2246,0.1176,0.0,0.0,0.0,0.0,0.0,0.0,0.0,0.0,0.0,
1698454863039147786,0,1698454863036935329,IMU1_Frame,797,1698454863036935329,,-0.7344776665305572,0.4620410593606498,0.4390867693111215,0.23294511338218235,0.0,0.0,0.0,0.0,0.0,0.0,0.0,0.0,0.0,0.003912,0.010651,0.00642,0.0,0.0,0.0,0.0,0.0,0.0,0.0,0.0,0.0,2.784,-0.079,-9.985,0.0,0.0,0.0,0.0,0.0,0.0,0.0,0.0,0.0,797,1698454863036935329,,-0.0145,0.2265,0.1211,0.0,0.0,0.0,0.0,0.0,0.0,0.0,0.0,0.0,
1698454863063389473,0,1698454863061907052,IMU1_Frame,798,1698454863061907052,,-0.7391551537009039,0.463830286471108,0.4321724246724338,0.227460149174031,0.0,0.0,0.0,0.0,0.0,0.0,0.0,0.0,0.0,-0.00278,0.00587,0.00237,0.0,0.0,0.0,0.0,0.0,0.0,0.0,0.0,0.0,2.687,-0.263,-10.013,0.0,0.0,0.0,0.0,0.0,0.0,0.0,0.0,0.0,798,1698454863061907052,,-0.0162,0.219,0.1252,0.0,0.0,0.0,0.0,0.0,0.0,0.0,0.0,0.0,
1698454863087916815,0,1698454863086936473,IMU1_Frame,799,1698454863086936473,,-0.7423800071917398,0.4661789017321403,0.42710222203170306,0.22165930713008575,0.0,0.0,0.0,0.0,0.0,0.0,0.0,0.0,0.0,-0.005012,0.000827,-0.0021,0.0,0.0,0.0,0.0,0.0,0.0,0.0,0.0,0.0,2.68,-0.321,-10.0,0.0,0.0,0.0,0.0,0.0,0.0,0.0,0.0,0.0,799,1698454863086936473,,-0.0087,0.2339,0.1128,0.0,0.0,0.0,0.0,0.0,0.0,0.0,0.0,0.0,
1698454863114893609,0,1698454863112081050,IMU1_Frame,800,1698454863112081050,,-0.7445050756941882,0.4672173078779353,0.42546430781060196,0.21540729389723817,0.0,0.0,0.0,0.0,0.0,0.0,0.0,0.0,0.0,-0.008786,0.004092,-0.0048,0.0,0.0,0.0,0.0,0.0,0.0,0.0,0.0,0.0,2.784,-0.261,-9.92,0.0,0.0,0.0,0.0,0.0,0.0,0.0,0.0,0.0,800,1698454863112081050,,-0.0127,0.2378,0.117,0.0,0.0,0.0,0.0,0.0,0.0,0.0,0.0,0.0,
1698454863138691691,0,1698454863136930704,IMU1_Frame,801,1698454863136930704,,-0.7461378393317949,0.46695286016064275,0.4263284523933257,0.2085123540344494,0.0,0.0,0.0,0.0,0.0,0.0,0.0,0.0,0.0,-0.012262,0.006356,-0.00631,0.0,0.0,0.0,0.0,0.0,0.0,0.0,0.0,0.0,2.939,-0.17,-9.896,0.0,0.0,0.0,0.0,0.0,0.0,0.0,0.0,0.0,801,1698454863136930704,,-0.0175,0.2229,0.127,0.0,0.0,0.0,0.0,0.0,0.0,0.0,0.0,0.0,
1698454863163317588,0,1698454863161674499,IMU1_Frame,802,1698454863161674499,,-0.7459973998691644,0.463541744415042,0.4325699998355629,0.2037157966760724,0.0,0.0,0.0,0.0,0.0,0.0,0.0,0.0,0.0,-0.015234,0.002348,-0.00321,0.0,0.0,0.0,0.0,0.0,0.0,0.0,0.0,0.0,2.723,-0.296,-9.817,0.0,0.0,0.0,0.0,0.0,0.0,0.0,0.0,0.0,802,1698454863161674499,,-0.0186,0.2304,0.1241,0.0,0.0,0.0,0.0,0.0,0.0,0.0,0.0,0.0,
1698454863190716876,0,1698454863186734437,IMU1_Frame,803,1698454863186734437,,-0.7493466397566406,0.4605446792297736,0.4343997466333918,0.1941006750205197,0.0,0.0,0.0,0.0,0.0,0.0,0.0,0.0,0.0,-0.014677,0.000804,-0.00211,0.0,0.0,0.0,0.0,0.0,0.0,0.0,0.0,0.0,2.723,-0.143,-9.793,0.0,0.0,0.0,0.0,0.0,0.0,0.0,0.0,0.0,803,1698454863186734437,,-0.0115,0.2341,0.1222,0.0,0.0,0.0,0.0,0.0,0.0,0.0,0.0,0.0,
1698454863213219849,0,1698454863211791276,IMU1_Frame,804,1698454863211791276,,-0.752052830367481,0.45764424425051964,0.4364436276417942,0.18572895824696467,0.0,0.0,0.0,0.0,0.0,0.0,0.0,0.0,0.0,-0.012886,0.009543,0.00237,0.0,0.0,0.0,0.0,0.0,0.0,0.0,0.0,0.0,2.932,0.046,-9.722,0.0,0.0,0.0,0.0,0.0,0.0,0.0,0.0,0.0,804,1698454863211791276,,-0.0159,0.2265,0.1217,0.0,0.0,0.0,0.0,0.0,0.0,0.0,0.0,0.0,
1698454863238298659,0,1698454863236746549,IMU1_Frame,805,1698454863236746549,,-0.755942702342737,0.45363581895135097,0.43776030815522976,0.17644003837829886,0.0,0.0,0.0,0.0,0.0,0.0,0.0,0.0,0.0,-0.010369,-0.003928,0.00376,0.0,0.0,0.0,0.0,0.0,0.0,0.0,0.0,0.0,2.832,0.113,-9.771,0.0,0.0,0.0,0.0,0.0,0.0,0.0,0.0,0.0,805,1698454863236746549,,-0.0114,0.2379,0.1222,0.0,0.0,0.0,0.0,0.0,0.0,0.0,0.0,0.0,
1698454863263760370,0,1698454863261645555,IMU1_Frame,806,1698454863261645555,,-0.7602623603577521,0.44958676309481366,0.4384074308616092,0.1663484608841054,0.0,0.0,0.0,0.0,0.0,0.0,0.0,0.0,0.0,-0.010262,0.004864,0.00362,0.0,0.0,0.0,0.0,0.0,0.0,0.0,0.0,0.0,2.654,0.003,-9.737,0.0,0.0,0.0,0.0,0.0,0.0,0.0,0.0,0.0,806,1698454863261645555,,-0.0108,0.2152,0.125,0.0,0.0,0.0,0.0,0.0,0.0,0.0,0.0,0.0,
1698454863288538289,0,1698454863286727190,IMU1_Frame,807,1698454863286727190,,-0.7662712373370896,0.44660490128407987,0.4354038863756515,0.1542592256816484,0.0,0.0,0.0,0.0,0.0,0.0,0.0,0.0,0.0,-0.0095,0.00712,0.00534,0.0,0.0,0.0,0.0,0.0,0.0,0.0,0.0,0.0,2.858,0.158,-9.764,0.0,0.0,0.0,0.0,0.0,0.0,0.0,0.0,0.0,807,1698454863286727190,,-0.0147,0.2247,0.1269,0.0,0.0,0.0,0.0,0.0,0.0,0.0,0.0,0.0,
1698454863315479127,0,1698454863311986684,IMU1_Frame,808,1698454863311986684,,-0.7702381440521153,0.44235544000553145,0.4354941782164496,0.146286318171744,0.0,0.0,0.0,0.0,0.0,0.0,0.0,0.0,0.0,-0.008608,0.009294,0.00586,0.0,0.0,0.0,0.0,0.0,0.0,0.0,0.0,0.0,2.633,0.255,-9.848,0.0,0.0,0.0,0.0,0.0,0.0,0.0,0.0,0.0,808,1698454863311986684,,-0.0104,0.2265,0.1239,0.0,0.0,0.0,0.0,0.0,0.0,0.0,0.0,0.0,
1698454863338081446,0,1698454863336632013,IMU1_Frame,809,1698454863336632013,,-0.7754067893424721,0.440122087775464,0.4315256336269634,0.13719506702725706,0.0,0.0,0.0,0.0,0.0,0.0,0.0,0.0,0.0,-0.002463,0.001507,0.00722,0.0,0.0,0.0,0.0,0.0,0.0,0.0,0.0,0.0,2.728,0.321,-9.847,0.0,0.0,0.0,0.0,0.0,0.0,0.0,0.0,0.0,809,1698454863336632013,,-0.0144,0.2342,0.1304,0.0,0.0,0.0,0.0,0.0,0.0,0.0,0.0,0.0,
1698454863363096305,0,1698454863361637115,IMU1_Frame,810,1698454863361637115,,-0.7789403599990705,0.4396587307035611,0.4270020138224667,0.13274560735560967,0.0,0.0,0.0,0.0,0.0,0.0,0.0,0.0,0.0,0.002081,0.003098,0.00582,0.0,0.0,0.0,0.0,0.0,0.0,0.0,0.0,0.0,2.734,0.15,-9.668,0.0,0.0,0.0,0.0,0.0,0.0,0.0,0.0,0.0,810,1698454863361637115,,-0.0055,0.2491,0.1197,0.0,0.0,0.0,0.0,0.0,0.0,0.0,0.0,0.0,
1698454863388439134,0,1698454863386588335,IMU1_Frame,811,1698454863386588335,,-0.7820189887065061,0.4399297759405534,0.42129915339787677,0.13196634756474937,0.0,0.0,0.0,0.0,0.0,0.0,0.0,0.0,0.0,0.007769,0.01388,0.00765,0.0,0.0,0.0,0.0,0.0,0.0,0.0,0.0,0.0,2.744,0.196,-9.882,0.0,0.0,0.0,0.0,0.0,0.0,0.0,0.0,0.0,811,1698454863386588335,,-0.013,0.2322,0.124,0.0,0.0,0.0,0.0,0.0,0.0,0.0,0.0,0.0,
1698454863414493817,0,1698454863411841392,IMU1_Frame,812,1698454863411841392,,-0.7853415073847597,0.44248252330128784,0.41257614709087576,0.1312587376261361,0.0,0.0,0.0,0.0,0.0,0.0,0.0,0.0,0.0,0.011197,0.003479,0.0035,0.0,0.0,0.0,0.0,0.0,0.0,0.0,0.0,0.0,2.556,0.239,-10.018,0.0,0.0,0.0,0.0,0.0,0.0,0.0,0.0,0.0,812,1698454863411841392,,-0.0104,0.2246,0.1204,0.0,0.0,0.0,0.0,0.0,0.0,0.0,0.0,0.0,
1698454863439501894,0,1698454863436582326,IMU1_Frame,813,1698454863436582326,,-0.7879544821526241,0.4455647735418925,0.40376909091340796,0.13255296246071757,0.0,0.0,0.0,0.0,0.0,0.0,0.0,0.0,0.0,0.011412,0.004751,0.00597,0.0,0.0,0.0,0.0,0.0,0.0,0.0,0.0,0.0,2.572,0.008,-9.961,0.0,0.0,0.0,0.0,0.0,0.0,0.0,0.0,0.0,813,1698454863436582326,,-0.0107,0.2209,0.1262,0.0,0.0,0.0,0.0,0.0,0.0,0.0,0.0,0.0,
1698454863463779478,0,1698454863461621522,IMU1_Frame,814,1698454863461621522,,-0.7914584209770976,0.4486831282340821,0.39308073965016727,0.13328372150639717,0.0,0.0,0.0,0.0,0.0,0.0,0.0,0.0,0.0,0.012436,0.009339,0.00491,0.0,0.0,0.0,0.0,0.0,0.0,0.0,0.0,0.0,2.642,0.077,-10.02,0.0,0.0,0.0,0.0,0.0,0.0,0.0,0.0,0.0,814,1698454863461621522,,-0.0041,0.2471,0.1156,0.0,0.0,0.0,0.0,0.0,0.0,0.0,0.0,0.0,
1698454863489667681,0,1698454863486710309,IMU1_Frame,815,1698454863486710309,,-0.7944221558144791,0.4528980582454487,0.3817044428794981,0.1344563329658733,0.0,0.0,0.0,0.0,0.0,0.0,0.0,0.0,0.0,0.013446,0.011614,0.00558,0.0,0.0,0.0,0.0,0.0,0.0,0.0,0.0,0.0,2.744,0.097,-10.063,0.0,0.0,0.0,0.0,0.0,0.0,0.0,0.0,0.0,815,1698454863486710309,,-0.0116,0.2342,0.1291,0.0,0.0,0.0,0.0,0.0,0.0,0.0,0.0,0.0,
1698454863513179496,0,1698454863511634588,IMU1_Frame,816,1698454863511634588,,-0.7974239717752603,0.45496532027442893,0.3719333626675566,0.13706618956022412,0.0,0.0,0.0,0.0,0.0,0.0,0.0,0.0,0.0,0.012676,0.011698,0.00577,0.0,0.0,0.0,0.0,0.0,0.0,0.0,0.0,0.0,2.712,-0.125,-10.011,0.0,0.0,0.0,0.0,0.0,0.0,0.0,0.0,0.0,816,1698454863511634588,,-0.0148,0.221,0.1281,0.0,0.0,0.0,0.0,0.0,0.0,0.0,0.0,0.0,
1698454863537879852,0,1698454863536432981,IMU1_Frame,817,1698454863536432981,,-0.8011052701381686,0.4568339005496155,0.36162650754150133,0.13696496818096365,0.0,0.0,0.0,0.0,0.0,0.0,0.0,0.0,0.0,0.006885,0.011298,0.00662,0.0,0.0,0.0,0.0,0.0,0.0,0.0,0.0,0.0,2.729,-0.251,-10.071,0.0,0.0,0.0,0.0,0.0,0.0,0.0,0.0,0.0,817,1698454863536432981,,-0.0073,0.2339,0.1133,0.0,0.0,0.0,0.0,0.0,0.0,0.0,0.0,0.0,
1698454863564518099,0,1698454863561546564,IMU1_Frame,818,1698454863561546564,,-0.8047931016487534,0.45635612556784944,0.3542254368630509,0.1362772544281009,0.0,0.0,0.0,0.0,0.0,0.0,0.0,0.0,0.0,0.006727,0.010293,0.00742,0.0,0.0,0.0,0.0,0.0,0.0,0.0,0.0,0.0,2.774,-0.062,-9.947,0.0,0.0,0.0,0.0,0.0,0.0,0.0,0.0,0.0,818,1698454863561546564,,-0.0116,0.2302,0.1152,0.0,0.0,0.0,0.0,0.0,0.0,0.0,0.0,0.0,
1698454863588934435,0,1698454863586566448,IMU1_Frame,819,1698454863586566448,,-0.8085081657741059,0.45498745240447835,0.3484669952304525,0.13368514227891354,0.0,0.0,0.0,0.0,0.0,0.0,0.0,0.0,0.0,0.002975,0.001147,0.00652,0.0,0.0,0.0,0.0,0.0,0.0,0.0,0.0,0.0,2.682,-0.24,-9.838,0.0,0.0,0.0,0.0,0.0,0.0,0.0,0.0,0.0,819,1698454863586566448,,-0.0174,0.2267,0.1281,0.0,0.0,0.0,0.0,0.0,0.0,0.0,0.0,0.0,
1698454863615316935,0,1698454863611841440,IMU1_Frame,820,1698454863611841440,,-0.8126614569302727,0.4523371582174911,0.34424956453372313,0.12831480442268978,0.0,0.0,0.0,0.0,0.0,0.0,0.0,0.0,0.0,-0.007646,0.003246,0.00735,0.0,0.0,0.0,0.0,0.0,0.0,0.0,0.0,0.0,2.558,-0.237,-9.813,0.0,0.0,0.0,0.0,0.0,0.0,0.0,0.0,0.0,820,1698454863611841440,,-0.0097,0.2453,0.1146,0.0,0.0,0.0,0.0,0.0,0.0,0.0,0.0,0.0,
1698454863639288035,0,1698454863636598348,IMU1_Frame,821,1698454863636598348,,-0.8167754315299132,0.4489097338722283,0.34165641644514216,0.12094973495528068,0.0,0.0,0.0,0.0,0.0,0.0,0.0,0.0,0.0,-0.00625,0.008025,0.00616,0.0,0.0,0.0,0.0,0.0,0.0,0.0,0.0,0.0,2.665,-0.134,-9.771,0.0,0.0,0.0,0.0,0.0,0.0,0.0,0.0,0.0,821,1698454863636598348,,-0.0075,0.2302,0.1191,0.0,0.0,0.0,0.0,0.0,0.0,0.0,0.0,0.0,
1698454863662453372,0,1698454863661691427,IMU1_Frame,822,1698454863661691427,,-0.8211244299316336,0.44608729697237554,0.33818954815975094,0.11130419383308458,0.0,0.0,0.0,0.0,0.0,0.0,0.0,0.0,0.0,-0.009115,0.005112,0.00455,0.0,0.0,0.0,0.0,0.0,0.0,0.0,0.0,0.0,2.658,-0.104,-9.802,0.0,0.0,0.0,0.0,0.0,0.0,0.0,0.0,0.0,822,1698454863661691427,,-0.0146,0.2266,0.1234,0.0,0.0,0.0,0.0,0.0,0.0,0.0,0.0,0.0,
1698454863691410600,0,1698454863686574935,IMU1_Frame,823,1698454863686574935,,-0.823805881522157,0.4430374399125775,0.3383408297828643,0.10289401978275499,0.0,0.0,0.0,0.0,0.0,0.0,0.0,0.0,0.0,-0.01121,-0.001185,0.00036,0.0,0.0,0.0,0.0,0.0,0.0,0.0,0.0,0.0,2.505,-0.162,-9.838,0.0,0.0,0.0,0.0,0.0,0.0,0.0,0.0,0.0,823,1698454863686574935,,-0.0088,0.2301,0.1139,0.0,0.0,0.0,0.0,0.0,0.0,0.0,0.0,0.0,
1698454863715082270,0,1698454863711867809,IMU1_Frame,824,1698454863711867809,,-0.8269339986692484,0.4426253453971314,0.3341141492211901,0.09290156482620698,0.0,0.0,0.0,0.0,0.0,0.0,0.0,0.0,0.0,-0.006197,0.006338,0.00223,0.0,0.0,0.0,0.0,0.0,0.0,0.0,0.0,0.0,2.659,0.021,-9.926,0.0,0.0,0.0,0.0,0.0,0.0,0.0,0.0,0.0,824,1698454863711867809,,-0.0176,0.219,0.1247,0.0,0.0,0.0,0.0,0.0,0.0,0.0,0.0,0.0,
1698454863740161649,0,1698454863736617565,IMU1_Frame,825,1698454863736617565,,-0.8291964634032335,0.4419280776565746,0.33119387011372947,0.08627525518608874,0.0,0.0,0.0,0.0,0.0,0.0,0.0,0.0,0.0,-0.004311,0.003601,-8e-05,0.0,0.0,0.0,0.0,0.0,0.0,0.0,0.0,0.0,2.628,-0.069,-9.733,0.0,0.0,0.0,0.0,0.0,0.0,0.0,0.0,0.0,825,1698454863736617565,,-0.0176,0.219,0.1223,0.0,0.0,0.0,0.0,0.0,0.0,0.0,0.0,0.0,
1698454863765303111,0,1698454863761795759,IMU1_Frame,826,1698454863761795759,,-0.8318142202891068,0.44250238860819313,0.3253728749733716,0.08005767441308573,0.0,0.0,0.0,0.0,0.0,0.0,0.0,0.0,0.0,-0.004466,0.009565,0.00047,0.0,0.0,0.0,0.0,0.0,0.0,0.0,0.0,0.0,2.651,0.098,-9.698,0.0,0.0,0.0,0.0,0.0,0.0,0.0,0.0,0.0,826,1698454863761795759,,-0.0186,0.2304,0.1241,0.0,0.0,0.0,0.0,0.0,0.0,0.0,0.0,0.0,
1698454863788711342,0,1698454863786513805,IMU1_Frame,827,1698454863786513805,,-0.834091339241275,0.4435848885863278,0.31903799906683095,0.07575512901437215,0.0,0.0,0.0,0.0,0.0,0.0,0.0,0.0,0.0,-0.000872,0.021571,0.00121,0.0,0.0,0.0,0.0,0.0,0.0,0.0,0.0,0.0,2.511,0.182,-9.809,0.0,0.0,0.0,0.0,0.0,0.0,0.0,0.0,0.0,827,1698454863786513805,,-0.0187,0.2266,0.1253,0.0,0.0,0.0,0.0,0.0,0.0,0.0,0.0,0.0,
1698454863815604201,0,1698454863811496973,IMU1_Frame,828,1698454863811496973,,-0.837120318102083,0.44651475312085426,0.3088460867174947,0.06684491742368703,0.0,0.0,0.0,0.0,0.0,0.0,0.0,0.0,0.0,-0.003577,0.009093,-0.00096,0.0,0.0,0.0,0.0,0.0,0.0,0.0,0.0,0.0,2.474,0.101,-9.737,0.0,0.0,0.0,0.0,0.0,0.0,0.0,0.0,0.0,828,1698454863811496973,,-0.0098,0.2415,0.1169,0.0,0.0,0.0,0.0,0.0,0.0,0.0,0.0,0.0,
1698454863838476231,0,1698454863836437940,IMU1_Frame,829,1698454863836437940,,-0.8399095164748325,0.44778244564528336,0.30138649239914395,0.05664863375477462,0.0,0.0,0.0,0.0,0.0,0.0,0.0,0.0,0.0,-0.007925,0.023385,-0.00201,0.0,0.0,0.0,0.0,0.0,0.0,0.0,0.0,0.0,2.466,0.107,-10.298,0.0,0.0,0.0,0.0,0.0,0.0,0.0,0.0,0.0,829,1698454863836437940,,-0.0117,0.2284,0.1198,0.0,0.0,0.0,0.0,0.0,0.0,0.0,0.0,0.0,
1698454863864315425,0,1698454863861685037,IMU1_Frame,830,1698454863861685037,,-0.8422473166550589,0.4489353278093169,0.29495994349941956,0.045553932463766475,0.0,0.0,0.0,0.0,0.0,0.0,0.0,0.0,0.0,-0.005663,-0.006466,0.00048,0.0,0.0,0.0,0.0,0.0,0.0,0.0,0.0,0.0,2.408,0.149,-10.095,0.0,0.0,0.0,0.0,0.0,0.0,0.0,0.0,0.0,830,1698454863861685037,,-0.0172,0.2304,0.1258,0.0,0.0,0.0,0.0,0.0,0.0,0.0,0.0,0.0,
1698454863890021040,0,1698454863886625051,IMU1_Frame,831,1698454863886625051,,-0.8442945119062788,0.44822539335110567,0.2913815640988059,0.03684505426130752,0.0,0.0,0.0,0.0,0.0,0.0,0.0,0.0,0.0,-0.010487,0.014946,0.00285,0.0,0.0,0.0,0.0,0.0,0.0,0.0,0.0,0.0,2.477,-0.096,-9.795,0.0,0.0,0.0,0.0,0.0,0.0,0.0,0.0,0.0,831,1698454863886625051,,-0.01,0.2359,0.1181,0.0,0.0,0.0,0.0,0.0,0.0,0.0,0.0,0.0,
1698454863915110945,0,1698454863912307262,IMU1_Frame,832,1698454863912307262,,-0.8475305589404231,0.4476287581084344,0.28389084075079135,0.026952497365618458,0.0,0.0,0.0,0.0,0.0,0.0,0.0,0.0,0.0,-0.005577,0.01391,0.0047,0.0,0.0,0.0,0.0,0.0,0.0,0.0,0.0,0.0,2.294,0.044,-10.039,0.0,0.0,0.0,0.0,0.0,0.0,0.0,0.0,0.0,832,1698454863912307262,,-0.0131,0.2265,0.1205,0.0,0.0,0.0,0.0,0.0,0.0,0.0,0.0,0.0,
1698454863938812147,0,1698454863937420845,IMU1_Frame,833,1698454863937420845,,-0.8513789634437114,0.44472040855629275,0.2775697785487462,0.018238334776929363,0.0,0.0,0.0,0.0,0.0,0.0,0.0,0.0,0.0,-0.0054,0.00987,0.00741,0.0,0.0,0.0,0.0,0.0,0.0,0.0,0.0,0.0,2.312,-0.103,-9.715,0.0,0.0,0.0,0.0,0.0,0.0,0.0,0.0,0.0,833,1698454863937420845,,-0.0102,0.2341,0.1215,0.0,0.0,0.0,0.0,0.0,0.0,0.0,0.0,0.0,
1698454863964514775,0,1698454863961519956,IMU1_Frame,834,1698454863961519956,,-0.8551006222039916,0.4428234093945698,0.2694695797483824,0.009823420419874537,0.0,0.0,0.0,0.0,0.0,0.0,0.0,0.0,0.0,-0.003016,0.012754,0.0051,0.0,0.0,0.0,0.0,0.0,0.0,0.0,0.0,0.0,2.236,-0.01,-10.029,0.0,0.0,0.0,0.0,0.0,0.0,0.0,0.0,0.0,834,1698454863961519956,,-0.0118,0.2285,0.1257,0.0,0.0,0.0,0.0,0.0,0.0,0.0,0.0,0.0,
1698454863989541990,0,1698454863986405611,IMU1_Frame,835,1698454863986405611,,-0.8590524770516028,0.4409344689172975,0.26000521410928623,0.001710095936090783,0.0,0.0,0.0,0.0,0.0,0.0,0.0,0.0,0.0,1.4e-05,0.006305,0.00645,0.0,0.0,0.0,0.0,0.0,0.0,0.0,0.0,0.0,2.343,0.103,-9.911,0.0,0.0,0.0,0.0,0.0,0.0,0.0,0.0,0.0,835,1698454863986405611,,-0.0096,0.2492,0.1192,0.0,0.0,0.0,0.0,0.0,0.0,0.0,0.0,0.0,
1698454864014550823,0,1698454864012161493,IMU1_Frame,836,1698454864012161493,,-0.8622156642847089,0.4385330967256282,0.25351515242208505,-0.0017143018159599538,0.0,0.0,0.0,0.0,0.0,0.0,0.0,0.0,0.0,0.00053,0.009506,0.00559,0.0,0.0,0.0,0.0,0.0,0.0,0.0,0.0,0.0,2.242,0.026,-10.134,0.0,0.0,0.0,0.0,0.0,0.0,0.0,0.0,0.0,836,1698454864012161493,,-0.006,0.2301,0.1139,0.0,0.0,0.0,0.0,0.0,0.0,0.0,0.0,0.0,
1698454864039604642,0,1698454864037097692,IMU1_Frame,837,1698454864037097692,,-0.865073300268692,0.4378726075511752,0.24468831507244485,-0.00658735042152872,0.0,0.0,0.0,0.0,0.0,0.0,0.0,0.0,0.0,-0.000531,0.011205,0.00491,0.0,0.0,0.0,0.0,0.0,0.0,0.0,0.0,0.0,2.365,0.18,-9.903,0.0,0.0,0.0,0.0,0.0,0.0,0.0,0.0,0.0,837,1698454864037097692,,-0.0162,0.2229,0.131,0.0,0.0,0.0,0.0,0.0,0.0,0.0,0.0,0.0,
1698454864062769161,0,1698454864061294555,IMU1_Frame,838,1698454864061294555,,-0.8676439256798167,0.4358709445258312,0.23896699573623026,-0.010262207261446082,0.0,0.0,0.0,0.0,0.0,0.0,0.0,0.0,0.0,-0.001202,0.012617,0.00238,0.0,0.0,0.0,0.0,0.0,0.0,0.0,0.0,0.0,2.25,-0.035,-9.919,0.0,0.0,0.0,0.0,0.0,0.0,0.0,0.0,0.0,838,1698454864061294555,,-0.0087,0.2359,0.1198,0.0,0.0,0.0,0.0,0.0,0.0,0.0,0.0,0.0,
1698454864087616902,0,1698454864086312770,IMU1_Frame,839,1698454864086312770,,-0.8696451669718592,0.4353375497638523,0.23238321152754693,-0.014019426815531935,0.0,0.0,0.0,0.0,0.0,0.0,0.0,0.0,0.0,-0.000319,0.012927,0.00483,0.0,0.0,0.0,0.0,0.0,0.0,0.0,0.0,0.0,2.184,0.167,-10.095,0.0,0.0,0.0,0.0,0.0,0.0,0.0,0.0,0.0,839,1698454864086312770,,-0.0134,0.2228,0.1274,0.0,0.0,0.0,0.0,0.0,0.0,0.0,0.0,0.0,
1698454864115513116,0,1698454864112371444,IMU1_Frame,840,1698454864112371444,,-0.8716993416996858,0.4340199083190093,0.22682510151331464,-0.01781432531890413,0.0,0.0,0.0,0.0,0.0,0.0,0.0,0.0,0.0,-0.003339,0.00847,0.00169,0.0,0.0,0.0,0.0,0.0,0.0,0.0,0.0,0.0,2.162,-0.009,-9.717,0.0,0.0,0.0,0.0,0.0,0.0,0.0,0.0,0.0,840,1698454864112371444,,-0.0086,0.2359,0.1163,0.0,0.0,0.0,0.0,0.0,0.0,0.0,0.0,0.0,
1698454864140280980,0,1698454864137155294,IMU1_Frame,841,1698454864137155294,,-0.8734326988073494,0.4337303574716018,0.22019747129375375,-0.022502695338621287,0.0,0.0,0.0,0.0,0.0,0.0,0.0,0.0,0.0,-0.000615,0.010242,0.00308,0.0,0.0,0.0,0.0,0.0,0.0,0.0,0.0,0.0,2.122,0.171,-9.929,0.0,0.0,0.0,0.0,0.0,0.0,0.0,0.0,0.0,841,1698454864137155294,,-0.0143,0.238,0.1315,0.0,0.0,0.0,0.0,0.0,0.0,0.0,0.0,0.0,
1698454864165656991,0,1698454864162320613,IMU1_Frame,842,1698454864162320613,,-0.87515056884797,0.432809234002624,0.21480202975975807,-0.0254506742194493,0.0,0.0,0.0,0.0,0.0,0.0,0.0,0.0,0.0,-0.000395,0.010472,0.00354,0.0,0.0,0.0,0.0,0.0,0.0,0.0,0.0,0.0,2.014,0.084,-10.071,0.0,0.0,0.0,0.0,0.0,0.0,0.0,0.0,0.0,842,1698454864162320613,,-0.0146,0.2246,0.1222,0.0,0.0,0.0,0.0,0.0,0.0,0.0,0.0,0.0,
1698454864189243870,0,1698454864187052249,IMU1_Frame,843,1698454864187052249,,-0.8773142396561878,0.43279473792673784,0.2050968418403863,-0.030720110457334943,0.0,0.0,0.0,0.0,0.0,0.0,0.0,0.0,0.0,0.002427,0.008934,0.00189,0.0,0.0,0.0,0.0,0.0,0.0,0.0,0.0,0.0,2.166,0.06,-10.298,0.0,0.0,0.0,0.0,0.0,0.0,0.0,0.0,0.0,843,1698454864187052249,,-0.0144,0.2322,0.1222,0.0,0.0,0.0,0.0,0.0,0.0,0.0,0.0,0.0,
1698454864214321816,0,1698454864212015390,IMU1_Frame,844,1698454864212015390,,-0.8785726038061065,0.4316090075669822,0.20264960002234453,-0.027513342930055654,0.0,0.0,0.0,0.0,0.0,0.0,0.0,0.0,0.0,0.007055,0.004622,0.00412,0.0,0.0,0.0,0.0,0.0,0.0,0.0,0.0,0.0,2.013,0.014,-9.996,0.0,0.0,0.0,0.0,0.0,0.0,0.0,0.0,0.0,844,1698454864212015390,,-0.0114,0.2339,0.1117,0.0,0.0,0.0,0.0,0.0,0.0,0.0,0.0,0.0,
1698454864240176943,0,1698454864237048149,IMU1_Frame,845,1698454864237048149,,-0.8802876782924868,0.431286242310373,0.19590131513506467,-0.02661682491533418,0.0,0.0,0.0,0.0,0.0,0.0,0.0,0.0,0.0,0.00587,0.003612,0.00217,0.0,0.0,0.0,0.0,0.0,0.0,0.0,0.0,0.0,2.052,0.085,-10.182,0.0,0.0,0.0,0.0,0.0,0.0,0.0,0.0,0.0,845,1698454864237048149,,-0.0177,0.2152,0.1223,0.0,0.0,0.0,0.0,0.0,0.0,0.0,0.0,0.0,
1698454864265420654,0,1698454864262156724,IMU1_Frame,846,1698454864262156724,,-0.881423448900332,0.42920283166167944,0.19605575316080157,-0.02097080529666591,0.0,0.0,0.0,0.0,0.0,0.0,0.0,0.0,0.0,0.007835,-0.008878,0.00413,0.0,0.0,0.0,0.0,0.0,0.0,0.0,0.0,0.0,1.945,-0.004,-10.14,0.0,0.0,0.0,0.0,0.0,0.0,0.0,0.0,0.0,846,1698454864262156724,,-0.0114,0.2378,0.1175,0.0,0.0,0.0,0.0,0.0,0.0,0.0,0.0,0.0,
1698454864288862030,0,1698454864286962509,IMU1_Frame,847,1698454864286962509,,-0.8823783325964365,0.42754100925213306,0.19581253083918146,-0.016571552080429208,0.0,0.0,0.0,0.0,0.0,0.0,0.0,0.0,0.0,0.005765,0.000129,0.0044,0.0,0.0,0.0,0.0,0.0,0.0,0.0,0.0,0.0,1.868,0.045,-10.149,0.0,0.0,0.0,0.0,0.0,0.0,0.0,0.0,0.0,847,1698454864286962509,,-0.0144,0.2303,0.1176,0.0,0.0,0.0,0.0,0.0,0.0,0.0,0.0,0.0,
1698454864312859188,0,1698454864311961412,IMU1_Frame,848,1698454864311961412,,-0.8832919817941745,0.4243382178157658,0.1990505694283465,-0.010546213031731783,0.0,0.0,0.0,0.0,0.0,0.0,0.0,0.0,0.0,0.005846,-0.008959,0.00582,0.0,0.0,0.0,0.0,0.0,0.0,0.0,0.0,0.0,1.749,-0.008,-10.017,0.0,0.0,0.0,0.0,0.0,0.0,0.0,0.0,0.0,848,1698454864311961412,,-0.0183,0.2398,0.1241,0.0,0.0,0.0,0.0,0.0,0.0,0.0,0.0,0.0,
1698454864338841988,0,1698454864336996316,IMU1_Frame,849,1698454864336996316,,-0.884192421170491,0.42170824294880216,0.20079401113097306,-0.006905452022404335,0.0,0.0,0.0,0.0,0.0,0.0,0.0,0.0,0.0,0.004063,-0.007833,0.00034,0.0,0.0,0.0,0.0,0.0,0.0,0.0,0.0,0.0,1.715,-0.015,-10.004,0.0,0.0,0.0,0.0,0.0,0.0,0.0,0.0,0.0,849,1698454864336996316,,-0.0188,0.2247,0.1241,0.0,0.0,0.0,0.0,0.0,0.0,0.0,0.0,0.0,
1698454864364153912,0,1698454864362206459,IMU1_Frame,850,1698454864362206459,,-0.8855857188704424,0.4179593096025369,0.20252273665358037,-0.005700104177737322,0.0,0.0,0.0,0.0,0.0,0.0,0.0,0.0,0.0,0.000576,-0.004566,0.00611,0.0,0.0,0.0,0.0,0.0,0.0,0.0,0.0,0.0,1.641,-0.104,-10.047,0.0,0.0,0.0,0.0,0.0,0.0,0.0,0.0,0.0,850,1698454864362206459,,-0.0186,0.2304,0.1218,0.0,0.0,0.0,0.0,0.0,0.0,0.0,0.0,0.0,
1698454864389916904,0,1698454864386986255,IMU1_Frame,851,1698454864386986255,,-0.8863742985704687,0.41394976864407795,0.2072933747427357,-0.003955838848023391,0.0,0.0,0.0,0.0,0.0,0.0,0.0,0.0,0.0,0.000451,-0.013089,0.00363,0.0,0.0,0.0,0.0,0.0,0.0,0.0,0.0,0.0,1.562,-0.059,-9.888,0.0,0.0,0.0,0.0,0.0,0.0,0.0,0.0,0.0,851,1698454864386986255,,-0.0136,0.251,0.1129,0.0,0.0,0.0,0.0,0.0,0.0,0.0,0.0,0.0,
1698454864413532054,0,1698454864411943674,IMU1_Frame,852,1698454864411943674,,-0.8878303718823566,0.4099432729110105,0.20899438671662407,-0.005008999819060195,0.0,0.0,0.0,0.0,0.0,0.0,0.0,0.0,0.0,-0.000958,-0.004668,0.00545,0.0,0.0,0.0,0.0,0.0,0.0,0.0,0.0,0.0,1.431,0.041,-10.006,0.0,0.0,0.0,0.0,0.0,0.0,0.0,0.0,0.0,852,1698454864411943674,,-0.0187,0.2285,0.1264,0.0,0.0,0.0,0.0,0.0,0.0,0.0,0.0,0.0,
1698454864439318676,0,1698454864436872720,IMU1_Frame,853,1698454864436872720,,-0.8894292292620201,0.4065624857086729,0.20868212010211884,-0.008623462091234255,0.0,0.0,0.0,0.0,0.0,0.0,0.0,0.0,0.0,-0.003857,-0.003627,0.00334,0.0,0.0,0.0,0.0,0.0,0.0,0.0,0.0,0.0,1.567,-0.085,-9.804,0.0,0.0,0.0,0.0,0.0,0.0,0.0,0.0,0.0,853,1698454864436872720,,-0.0172,0.2304,0.1258,0.0,0.0,0.0,0.0,0.0,0.0,0.0,0.0,0.0,
1698454864463255324,0,1698454864461935758,IMU1_Frame,854,1698454864461935758,,-0.8906300362878896,0.40357893526600896,0.20926091428018487,-0.010585425168974774,0.0,0.0,0.0,0.0,0.0,0.0,0.0,0.0,0.0,-0.001765,0.004415,0.00484,0.0,0.0,0.0,0.0,0.0,0.0,0.0,0.0,0.0,1.558,0.105,-9.966,0.0,0.0,0.0,0.0,0.0,0.0,0.0,0.0,0.0,854,1698454864461935758,,-0.0186,0.2304,0.1241,0.0,0.0,0.0,0.0,0.0,0.0,0.0,0.0,0.0,
1698454864489070300,0,1698454864486832618,IMU1_Frame,855,1698454864486832618,,-0.892840533288782,0.40074920006638676,0.2050336067894215,-0.01403854870260364,0.0,0.0,0.0,0.0,0.0,0.0,0.0,0.0,0.0,-0.000644,0.010754,0.00476,0.0,0.0,0.0,0.0,0.0,0.0,0.0,0.0,0.0,1.55,0.032,-9.978,0.0,0.0,0.0,0.0,0.0,0.0,0.0,0.0,0.0,855,1698454864486832618,,-0.0129,0.236,0.1251,0.0,0.0,0.0,0.0,0.0,0.0,0.0,0.0,0.0,
1698454864512810032,0,1698454864511778593,IMU1_Frame,856,1698454864511778593,,-0.8947526500883202,0.39963957135219674,0.19836510035320806,-0.018899606641991973,0.0,0.0,0.0,0.0,0.0,0.0,0.0,0.0,0.0,-0.003585,0.018782,0.00358,0.0,0.0,0.0,0.0,0.0,0.0,0.0,0.0,0.0,1.526,-0.006,-10.179,0.0,0.0,0.0,0.0,0.0,0.0,0.0,0.0,0.0,856,1698454864511778593,,-0.0111,0.2434,0.1105,0.0,0.0,0.0,0.0,0.0,0.0,0.0,0.0,0.0,
1698454864538589720,0,1698454864536886692,IMU1_Frame,857,1698454864536886692,,-0.8969085473086449,0.3969411699045308,0.19302999858847014,-0.027058918020753414,0.0,0.0,0.0,0.0,0.0,0.0,0.0,0.0,0.0,-0.006855,-0.001144,0.00329,0.0,0.0,0.0,0.0,0.0,0.0,0.0,0.0,0.0,1.649,0.036,-9.966,0.0,0.0,0.0,0.0,0.0,0.0,0.0,0.0,0.0,857,1698454864536886692,,-0.0171,0.2361,0.1281,0.0,0.0,0.0,0.0,0.0,0.0,0.0,0.0,0.0,
1698454864565530903,0,1698454864561995744,IMU1_Frame,858,1698454864561995744,,-0.8981001155932972,0.39510094867246526,0.19009459116789243,-0.03428511540211078,0.0,0.0,0.0,0.0,0.0,0.0,0.0,0.0,0.0,-0.006899,0.012745,0.00188,0.0,0.0,0.0,0.0,0.0,0.0,0.0,0.0,0.0,1.756,0.019,-9.952,0.0,0.0,0.0,0.0,0.0,0.0,0.0,0.0,0.0,858,1698454864561995744,,-0.0118,0.2285,0.1257,0.0,0.0,0.0,0.0,0.0,0.0,0.0,0.0,0.0,
1698454864588571778,0,1698454864586847305,IMU1_Frame,859,1698454864586847305,,-0.8998455311713593,0.3931011437177001,0.18477887133721344,-0.04007841746021927,0.0,0.0,0.0,0.0,0.0,0.0,0.0,0.0,0.0,-0.002989,0.007617,0.00529,0.0,0.0,0.0,0.0,0.0,0.0,0.0,0.0,0.0,1.587,0.139,-10.054,0.0,0.0,0.0,0.0,0.0,0.0,0.0,0.0,0.0,859,1698454864586847305,,-0.0173,0.2285,0.1235,0.0,0.0,0.0,0.0,0.0,0.0,0.0,0.0,0.0,
1698454864613733544,0,1698454864611811637,IMU1_Frame,860,1698454864611811637,,-0.9016738251269293,0.3915363793247256,0.17795114091315345,-0.04491066904381826,0.0,0.0,0.0,0.0,0.0,0.0,0.0,0.0,0.0,-0.003955,0.01878,0.00469,0.0,0.0,0.0,0.0,0.0,0.0,0.0,0.0,0.0,1.736,0.019,-10.051,0.0,0.0,0.0,0.0,0.0,0.0,0.0,0.0,0.0,860,1698454864611811637,,-0.0101,0.2359,0.1192,0.0,0.0,0.0,0.0,0.0,0.0,0.0,0.0,0.0,
1698454864638936575,0,1698454864636788845,IMU1_Frame,861,1698454864636788845,,-0.9033303367363116,0.3915021651865607,0.16782532456976004,-0.05054718408726301,0.0,0.0,0.0,0.0,0.0,0.0,0.0,0.0,0.0,-0.001035,0.012523,0.00431,0.0,0.0,0.0,0.0,0.0,0.0,0.0,0.0,0.0,1.861,0.178,-10.101,0.0,0.0,0.0,0.0,0.0,0.0,0.0,0.0,0.0,861,1698454864636788845,,-0.0144,0.2342,0.1269,0.0,0.0,0.0,0.0,0.0,0.0,0.0,0.0,0.0,
1698454864664361142,0,1698454864661703824,IMU1_Frame,862,1698454864661703824,,-0.9047464890632065,0.3911073555394038,0.15894165181794417,-0.05662489106531733,0.0,0.0,0.0,0.0,0.0,0.0,0.0,0.0,0.0,-0.002323,0.019438,0.00197,0.0,0.0,0.0,0.0,0.0,0.0,0.0,0.0,0.0,1.811,-0.049,-9.916,0.0,0.0,0.0,0.0,0.0,0.0,0.0,0.0,0.0,862,1698454864661703824,,-0.0172,0.2284,0.1177,0.0,0.0,0.0,0.0,0.0,0.0,0.0,0.0,0.0,
1698454864688707218,0,1698454864686858654,IMU1_Frame,863,1698454864686858654,,-0.9061601217031583,0.3909970620986702,0.1484830892788934,-0.06283234408584687,0.0,0.0,0.0,0.0,0.0,0.0,0.0,0.0,0.0,-0.002746,0.021617,0.0047,0.0,0.0,0.0,0.0,0.0,0.0,0.0,0.0,0.0,1.867,0.127,-9.975,0.0,0.0,0.0,0.0,0.0,0.0,0.0,0.0,0.0,863,1698454864686858654,,-0.0134,0.2209,0.1228,0.0,0.0,0.0,0.0,0.0,0.0,0.0,0.0,0.0,
1698454864715607638,0,1698454864712085485,IMU1_Frame,864,1698454864712085485,,-0.907624463398662,0.39014882597097605,0.14056409182874124,-0.06514186919425188,0.0,0.0,0.0,0.0,0.0,0.0,0.0,0.0,0.0,0.002511,0.011308,0.00457,0.0,0.0,0.0,0.0,0.0,0.0,0.0,0.0,0.0,1.738,0.201,-10.041,0.0,0.0,0.0,0.0,0.0,0.0,0.0,0.0,0.0,864,1698454864712085485,,-0.0171,0.2323,0.1235,0.0,0.0,0.0,0.0,0.0,0.0,0.0,0.0,0.0,
1698454864738817183,0,1698454864736822128,IMU1_Frame,865,1698454864736822128,,-0.9094035632445401,0.3894351804880778,0.12853487687760992,-0.0693122267887116,0.0,0.0,0.0,0.0,0.0,0.0,0.0,0.0,0.0,0.001374,0.018071,0.00507,0.0,0.0,0.0,0.0,0.0,0.0,0.0,0.0,0.0,1.836,0.012,-10.091,0.0,0.0,0.0,0.0,0.0,0.0,0.0,0.0,0.0,865,1698454864736822128,,-0.0116,0.2321,0.1198,0.0,0.0,0.0,0.0,0.0,0.0,0.0,0.0,0.0,
1698454864763877489,0,1698454864761915206,IMU1_Frame,866,1698454864761915206,,-0.9112077458241324,0.3878154688606869,0.11893764208682422,-0.0717874874702775,0.0,0.0,0.0,0.0,0.0,0.0,0.0,0.0,0.0,0.003228,0.007778,0.00315,0.0,0.0,0.0,0.0,0.0,0.0,0.0,0.0,0.0,1.995,0.046,-10.005,0.0,0.0,0.0,0.0,0.0,0.0,0.0,0.0,0.0,866,1698454864761915206,,-0.0127,0.2339,0.1088,0.0,0.0,0.0,0.0,0.0,0.0,0.0,0.0,0.0,
1698454864788903841,0,1698454864786907672,IMU1_Frame,867,1698454864786907672,,-0.9122466150979165,0.38697077893895343,0.11278343647141675,-0.0730727442174659,0.0,0.0,0.0,0.0,0.0,0.0,0.0,0.0,0.0,0.001683,0.011331,0.0037,0.0,0.0,0.0,0.0,0.0,0.0,0.0,0.0,0.0,1.909,0.034,-9.823,0.0,0.0,0.0,0.0,0.0,0.0,0.0,0.0,0.0,867,1698454864786907672,,-0.0154,0.2397,0.1147,0.0,0.0,0.0,0.0,0.0,0.0,0.0,0.0,0.0,
1698454864814060517,0,1698454864811885595,IMU1_Frame,868,1698454864811885595,,-0.9132260541433734,0.38657692893342893,0.1026605078715229,-0.07769988528745646,0.0,0.0,0.0,0.0,0.0,0.0,0.0,0.0,0.0,6.6e-05,0.0091,-0.00026,0.0,0.0,0.0,0.0,0.0,0.0,0.0,0.0,0.0,2.036,-0.021,-9.978,0.0,0.0,0.0,0.0,0.0,0.0,0.0,0.0,0.0,868,1698454864811885595,,-0.0197,0.234,0.1119,0.0,0.0,0.0,0.0,0.0,0.0,0.0,0.0,0.0,
1698454864838696287,0,1698454864836785316,IMU1_Frame,869,1698454864836785316,,-0.9134459340396619,0.38683266714876197,0.09736680426976162,-0.08060222477871615,0.0,0.0,0.0,0.0,0.0,0.0,0.0,0.0,0.0,0.001161,0.003933,0.00182,0.0,0.0,0.0,0.0,0.0,0.0,0.0,0.0,0.0,1.988,0.08,-9.98,0.0,0.0,0.0,0.0,0.0,0.0,0.0,0.0,0.0,869,1698454864836785316,,-0.0289,0.2116,0.1285,0.0,0.0,0.0,0.0,0.0,0.0,0.0,0.0,0.0,
1698454864863418179,0,1698454864861784458,IMU1_Frame,870,1698454864861784458,,-0.9142979987624787,0.38641251761324996,0.08700670875919048,-0.08470164296877321,0.0,0.0,0.0,0.0,0.0,0.0,0.0,0.0,0.0,0.001064,0.010944,0.00308,0.0,0.0,0.0,0.0,0.0,0.0,0.0,0.0,0.0,1.918,-0.061,-9.994,0.0,0.0,0.0,0.0,0.0,0.0,0.0,0.0,0.0,870,1698454864861784458,,-0.0142,0.234,0.1141,0.0,0.0,0.0,0.0,0.0,0.0,0.0,0.0,0.0,
1698454864888739712,0,1698454864886919498,IMU1_Frame,871,1698454864886919498,,-0.9151103083062855,0.3860047317344368,0.08025591883727931,-0.08445388210014214,0.0,0.0,0.0,0.0,0.0,0.0,0.0,0.0,0.0,0.006226,0.007838,-0.00113,0.0,0.0,0.0,0.0,0.0,0.0,0.0,0.0,0.0,2.058,-0.083,-10.061,0.0,0.0,0.0,0.0,0.0,0.0,0.0,0.0,0.0,871,1698454864886919498,,-0.0255,0.2305,0.126,0.0,0.0,0.0,0.0,0.0,0.0,0.0,0.0,0.0,
1698454864914787947,0,1698454864911937952,IMU1_Frame,872,1698454864911937952,,-0.915838361301235,0.38567568402659563,0.07232156141163376,-0.08522883593402805,0.0,0.0,0.0,0.0,0.0,0.0,0.0,0.0,0.0,0.002305,0.007103,0.00424,0.0,0.0,0.0,0.0,0.0,0.0,0.0,0.0,0.0,2.005,-0.071,-9.896,0.0,0.0,0.0,0.0,0.0,0.0,0.0,0.0,0.0,872,1698454864911937952,,-0.0245,0.221,0.1278,0.0,0.0,0.0,0.0,0.0,0.0,0.0,0.0,0.0,
1698454864937778186,0,1698454864936629295,IMU1_Frame,873,1698454864936629295,,-0.9165607811570148,0.3845912040841339,0.06601729367211162,-0.08745088405596027,0.0,0.0,0.0,0.0,0.0,0.0,0.0,0.0,0.0,-0.003659,0.015274,0.00301,0.0,0.0,0.0,0.0,0.0,0.0,0.0,0.0,0.0,1.892,0.101,-10.037,0.0,0.0,0.0,0.0,0.0,0.0,0.0,0.0,0.0,873,1698454864936629295,,-0.0183,0.234,0.1125,0.0,0.0,0.0,0.0,0.0,0.0,0.0,0.0,0.0,
1698454864963656118,0,1698454864961766242,IMU1_Frame,874,1698454864961766242,,-0.9169485693380784,0.3834439779406882,0.06371623475452905,-0.0900903901566534,0.0,0.0,0.0,0.0,0.0,0.0,0.0,0.0,0.0,-0.001867,-0.001649,0.00356,0.0,0.0,0.0,0.0,0.0,0.0,0.0,0.0,0.0,1.865,0.133,-10.235,0.0,0.0,0.0,0.0,0.0,0.0,0.0,0.0,0.0,874,1698454864961766242,,-0.0241,0.2304,0.1219,0.0,0.0,0.0,0.0,0.0,0.0,0.0,0.0,0.0,
1698454864990114051,0,1698454864986705780,IMU1_Frame,875,1698454864986705780,,-0.9172423835874683,0.38229528596442425,0.057355320789323,-0.09605774959529542,0.0,0.0,0.0,0.0,0.0,0.0,0.0,0.0,0.0,-0.005069,0.003374,0.00198,0.0,0.0,0.0,0.0,0.0,0.0,0.0,0.0,0.0,1.882,-0.101,-9.99,0.0,0.0,0.0,0.0,0.0,0.0,0.0,0.0,0.0,875,1698454864986705780,,-0.0182,0.2417,0.1194,0.0,0.0,0.0,0.0,0.0,0.0,0.0,0.0,0.0,
1698454865014829649,0,1698454865011859893,IMU1_Frame,876,1698454865011859893,,-0.9174619659653558,0.38096698386311534,0.05652129058587299,-0.09966464731153395,0.0,0.0,0.0,0.0,0.0,0.0,0.0,0.0,0.0,-0.004414,0.008471,0.00235,0.0,0.0,0.0,0.0,0.0,0.0,0.0,0.0,0.0,1.928,-0.061,-9.979,0.0,0.0,0.0,0.0,0.0,0.0,0.0,0.0,0.0,876,1698454865011859893,,-0.0228,0.2285,0.1225,0.0,0.0,0.0,0.0,0.0,0.0,0.0,0.0,0.0,
1698454865039027622,0,1698454865036730766,IMU1_Frame,877,1698454865036730766,,-0.9182602893128657,0.37882162865853714,0.047102857152385984,-0.10523086799807078,0.0,0.0,0.0,0.0,0.0,0.0,0.0,0.0,0.0,-0.001409,0.012033,0.00374,0.0,0.0,0.0,0.0,0.0,0.0,0.0,0.0,0.0,1.866,0.109,-10.041,0.0,0.0,0.0,0.0,0.0,0.0,0.0,0.0,0.0,877,1698454865036730766,,-0.0286,0.225,0.1343,0.0,0.0,0.0,0.0,0.0,0.0,0.0,0.0,0.0,
1698454865062442653,0,1698454865061558008,IMU1_Frame,878,1698454865061558008,,-0.9194568930558619,0.3762185620324487,0.045491637450891804,-0.10482903374702403,0.0,0.0,0.0,0.0,0.0,0.0,0.0,0.0,0.0,-0.001646,-0.005576,0.00482,0.0,0.0,0.0,0.0,0.0,0.0,0.0,0.0,0.0,1.898,-0.11,-9.989,0.0,0.0,0.0,0.0,0.0,0.0,0.0,0.0,0.0,878,1698454865061558008,,-0.0155,0.2378,0.1147,0.0,0.0,0.0,0.0,0.0,0.0,0.0,0.0,0.0,
1698454865087679132,0,1698454865086588859,IMU1_Frame,879,1698454865086588859,,-0.9200084510243233,0.37468948897272086,0.03851414792050325,-0.10820765826476439,0.0,0.0,0.0,0.0,0.0,0.0,0.0,0.0,0.0,-0.000241,0.007901,0.00263,0.0,0.0,0.0,0.0,0.0,0.0,0.0,0.0,0.0,1.989,0.08,-9.991,0.0,0.0,0.0,0.0,0.0,0.0,0.0,0.0,0.0,879,1698454865086588859,,-0.0187,0.2266,0.1218,0.0,0.0,0.0,0.0,0.0,0.0,0.0,0.0,0.0,
1698454865113699588,0,1698454865111763238,IMU1_Frame,880,1698454865111763238,,-0.9211271542637456,0.37239363890100474,0.03814564724320123,-0.10673637140374968,0.0,0.0,0.0,0.0,0.0,0.0,0.0,0.0,0.0,0.00227,-0.002801,0.00356,0.0,0.0,0.0,0.0,0.0,0.0,0.0,0.0,0.0,1.925,-0.083,-9.916,0.0,0.0,0.0,0.0,0.0,0.0,0.0,0.0,0.0,880,1698454865111763238,,-0.0217,0.2229,0.1288,0.0,0.0,0.0,0.0,0.0,0.0,0.0,0.0,0.0,
1698454865138503470,0,1698454865136613845,IMU1_Frame,881,1698454865136613845,,-0.9228164094396667,0.36872313138437324,0.033234557425259416,-0.10652976599866634,0.0,0.0,0.0,0.0,0.0,0.0,0.0,0.0,0.0,0.00047,0.007319,0.00552,0.0,0.0,0.0,0.0,0.0,0.0,0.0,0.0,0.0,1.892,0.081,-10.066,0.0,0.0,0.0,0.0,0.0,0.0,0.0,0.0,0.0,881,1698454865136613845,,-0.0113,0.2378,0.1152,0.0,0.0,0.0,0.0,0.0,0.0,0.0,0.0,0.0,
1698454865163293179,0,1698454865161684036,IMU1_Frame,882,1698454865161684036,,-0.9243047240293519,0.3659033617110434,0.033204156043406215,-0.10331016913656735,0.0,0.0,0.0,0.0,0.0,0.0,0.0,0.0,0.0,0.005719,-0.014415,0.00399,0.0,0.0,0.0,0.0,0.0,0.0,0.0,0.0,0.0,1.9,0.147,-9.97,0.0,0.0,0.0,0.0,0.0,0.0,0.0,0.0,0.0,882,1698454865161684036,,-0.0142,0.2359,0.1188,0.0,0.0,0.0,0.0,0.0,0.0,0.0,0.0,0.0,
1698454865190251395,0,1698454865186760663,IMU1_Frame,883,1698454865186760663,,-0.9251562294305666,0.364072579431239,0.028233376295256397,-0.1036338965545116,0.0,0.0,0.0,0.0,0.0,0.0,0.0,0.0,0.0,0.001374,0.007911,0.00284,0.0,0.0,0.0,0.0,0.0,0.0,0.0,0.0,0.0,2.036,-0.027,-9.796,0.0,0.0,0.0,0.0,0.0,0.0,0.0,0.0,0.0,883,1698454865186760663,,-0.0174,0.2266,0.1258,0.0,0.0,0.0,0.0,0.0,0.0,0.0,0.0,0.0,
1698454865214294786,0,1698454865211794376,IMU1_Frame,884,1698454865211794376,,-0.9260124023792318,0.36231008374140955,0.027019222581382566,-0.10248119569088926,0.0,0.0,0.0,0.0,0.0,0.0,0.0,0.0,0.0,0.000323,0.012316,0.00296,0.0,0.0,0.0,0.0,0.0,0.0,0.0,0.0,0.0,1.918,-0.045,-9.885,0.0,0.0,0.0,0.0,0.0,0.0,0.0,0.0,0.0,884,1698454865211794376,,-0.0171,0.2322,0.1223,0.0,0.0,0.0,0.0,0.0,0.0,0.0,0.0,0.0,
1698454865238442239,0,1698454865236550092,IMU1_Frame,885,1698454865236550092,,-0.926684012672906,0.3609656192089891,0.021453718990716738,-0.1024709731923122,0.0,0.0,0.0,0.0,0.0,0.0,0.0,0.0,0.0,0.004586,-0.001939,0.004,0.0,0.0,0.0,0.0,0.0,0.0,0.0,0.0,0.0,1.84,0.146,-10.001,0.0,0.0,0.0,0.0,0.0,0.0,0.0,0.0,0.0,885,1698454865236550092,,-0.0237,0.2438,0.1289,0.0,0.0,0.0,0.0,0.0,0.0,0.0,0.0,0.0,
1698454865264439469,0,1698454865261386156,IMU1_Frame,886,1698454865261386156,,-0.9272378100245665,0.36072352052963164,0.01838718290251791,-0.0988458238999696,0.0,0.0,0.0,0.0,0.0,0.0,0.0,0.0,0.0,0.00755,0.003953,0.00081,0.0,0.0,0.0,0.0,0.0,0.0,0.0,0.0,0.0,1.855,0.008,-9.95,0.0,0.0,0.0,0.0,0.0,0.0,0.0,0.0,0.0,886,1698454865261386156,,-0.0229,0.2247,0.1225,0.0,0.0,0.0,0.0,0.0,0.0,0.0,0.0,0.0,
1698454865287050739,0,1698454865286500453,IMU1_Frame,887,1698454865286500453,,-0.9274449550008362,0.36129493333233526,0.010828545585581072,-0.09588831624541831,0.0,0.0,0.0,0.0,0.0,0.0,0.0,0.0,0.0,0.006691,0.016155,0.00104,0.0,0.0,0.0,0.0,0.0,0.0,0.0,0.0,0.0,2.055,0.012,-10.108,0.0,0.0,0.0,0.0,0.0,0.0,0.0,0.0,0.0,887,1698454865286500453,,-0.0199,0.2304,0.1212,0.0,0.0,0.0,0.0,0.0,0.0,0.0,0.0,0.0,
1698454865313251890,0,1698454865311404466,IMU1_Frame,888,1698454865311404466,,-0.9278131300464,0.36189362291034016,0.007595427158270267,-0.09021147874086675,0.0,0.0,0.0,0.0,0.0,0.0,0.0,0.0,0.0,0.009022,0.010512,-0.00381,0.0,0.0,0.0,0.0,0.0,0.0,0.0,0.0,0.0,1.811,0.018,-10.169,0.0,0.0,0.0,0.0,0.0,0.0,0.0,0.0,0.0,888,1698454865311404466,,-0.0214,0.2285,0.123,0.0,0.0,0.0,0.0,0.0,0.0,0.0,0.0,0.0,
1698454865338571232,0,1698454865336506843,IMU1_Frame,889,1698454865336506843,,-0.9270692759129235,0.363942337110908,-0.0025496579732961384,-0.08990012325217892,0.0,0.0,0.0,0.0,0.0,0.0,0.0,0.0,0.0,0.005415,-0.003926,-0.00035,0.0,0.0,0.0,0.0,0.0,0.0,0.0,0.0,0.0,1.899,-0.176,-9.838,0.0,0.0,0.0,0.0,0.0,0.0,0.0,0.0,0.0,889,1698454865336506843,,-0.0257,0.2229,0.1249,0.0,0.0,0.0,0.0,0.0,0.0,0.0,0.0,0.0,
1698454865362321326,0,1698454865361434221,IMU1_Frame,890,1698454865361434221,,-0.9261734508655437,0.36615455190346463,-0.008855958780480393,-0.0897505154651595,0.0,0.0,0.0,0.0,0.0,0.0,0.0,0.0,0.0,-0.001188,0.016586,-0.00311,0.0,0.0,0.0,0.0,0.0,0.0,0.0,0.0,0.0,1.757,-0.059,-9.996,0.0,0.0,0.0,0.0,0.0,0.0,0.0,0.0,0.0,890,1698454865361434221,,-0.0182,0.2378,0.1148,0.0,0.0,0.0,0.0,0.0,0.0,0.0,0.0,0.0,
1698454865389891837,0,1698454865386662483,IMU1_Frame,891,1698454865386662483,,-0.9243055682528415,0.37015625470230024,-0.012947363557874597,-0.09206481075013243,0.0,0.0,0.0,0.0,0.0,0.0,0.0,0.0,0.0,-0.000398,-0.008335,-0.0043,0.0,0.0,0.0,0.0,0.0,0.0,0.0,0.0,0.0,1.883,0.02,-9.845,0.0,0.0,0.0,0.0,0.0,0.0,0.0,0.0,0.0,891,1698454865386662483,,-0.0198,0.2341,0.1177,0.0,0.0,0.0,0.0,0.0,0.0,0.0,0.0,0.0,
1698454865415521782,0,1698454865412513017,IMU1_Frame,892,1698454865412513017,,-0.9224518495960335,0.3734449033638476,-0.02081739538351366,-0.09585470973233215,0.0,0.0,0.0,0.0,0.0,0.0,0.0,0.0,0.0,-0.001698,0.019178,-0.0046,0.0,0.0,0.0,0.0,0.0,0.0,0.0,0.0,0.0,2.034,-0.155,-9.87,0.0,0.0,0.0,0.0,0.0,0.0,0.0,0.0,0.0,892,1698454865412513017,,-0.0241,0.2285,0.1208,0.0,0.0,0.0,0.0,0.0,0.0,0.0,0.0,0.0,
1698454865437611371,0,1698454865436512470,IMU1_Frame,893,1698454865436512470,,-0.9203731232055998,0.37820328428805267,-0.023298700645843384,-0.09660621296125535,0.0,0.0,0.0,0.0,0.0,0.0,0.0,0.0,0.0,0.001387,-0.004304,-0.00635,0.0,0.0,0.0,0.0,0.0,0.0,0.0,0.0,0.0,1.867,-0.154,-9.842,0.0,0.0,0.0,0.0,0.0,0.0,0.0,0.0,0.0,893,1698454865436512470,,-0.0241,0.2285,0.1219,0.0,0.0,0.0,0.0,0.0,0.0,0.0,0.0,0.0,
1698454865462426639,0,1698454865461299657,IMU1_Frame,894,1698454865461299657,,-0.9184994228753885,0.38143051455424004,-0.033459570268476777,-0.09874223970477256,0.0,0.0,0.0,0.0,0.0,0.0,0.0,0.0,0.0,0.004368,0.011234,-0.00234,0.0,0.0,0.0,0.0,0.0,0.0,0.0,0.0,0.0,1.976,0.131,-9.873,0.0,0.0,0.0,0.0,0.0,0.0,0.0,0.0,0.0,894,1698454865461299657,,-0.0282,0.2324,0.1238,0.0,0.0,0.0,0.0,0.0,0.0,0.0,0.0,0.0,
1698454865488007985,0,1698454865486383199,IMU1_Frame,895,1698454865486383199,,-0.9170715322328978,0.384704863323001,-0.03599398335495259,-0.09841954107736772,0.0,0.0,0.0,0.0,0.0,0.0,0.0,0.0,0.0,0.002871,-0.005274,-0.00574,0.0,0.0,0.0,0.0,0.0,0.0,0.0,0.0,0.0,1.868,-0.061,-9.94,0.0,0.0,0.0,0.0,0.0,0.0,0.0,0.0,0.0,895,1698454865486383199,,-0.0258,0.221,0.1272,0.0,0.0,0.0,0.0,0.0,0.0,0.0,0.0,0.0,
1698454865513091262,0,1698454865511432409,IMU1_Frame,896,1698454865511432409,,-0.9150204373825779,0.3878351215203482,-0.04397829725438501,-0.10191872771035554,0.0,0.0,0.0,0.0,0.0,0.0,0.0,0.0,0.0,-0.00217,0.006949,-0.00423,0.0,0.0,0.0,0.0,0.0,0.0,0.0,0.0,0.0,2.007,0.146,-9.82,0.0,0.0,0.0,0.0,0.0,0.0,0.0,0.0,0.0,896,1698454865511432409,,-0.021,0.2398,0.1219,0.0,0.0,0.0,0.0,0.0,0.0,0.0,0.0,0.0,
1698454865539151000,0,1698454865536384820,IMU1_Frame,897,1698454865536384820,,-0.9138009787867403,0.39059851159025405,-0.04413166396971789,-0.10223976793370282,0.0,0.0,0.0,0.0,0.0,0.0,0.0,0.0,0.0,-6.7e-05,0.001713,-0.00415,0.0,0.0,0.0,0.0,0.0,0.0,0.0,0.0,0.0,1.872,0.008,-10.066,0.0,0.0,0.0,0.0,0.0,0.0,0.0,0.0,0.0,897,1698454865536384820,,-0.0199,0.2323,0.1259,0.0,0.0,0.0,0.0,0.0,0.0,0.0,0.0,0.0,
1698454865562645282,0,1698454865561297416,IMU1_Frame,898,1698454865561297416,,-0.9119126968701506,0.393225759837264,-0.04970877043119436,-0.10638502352132995,0.0,0.0,0.0,0.0,0.0,0.0,0.0,0.0,0.0,-0.0026,-0.000294,-0.00272,0.0,0.0,0.0,0.0,0.0,0.0,0.0,0.0,0.0,1.984,0.074,-10.064,0.0,0.0,0.0,0.0,0.0,0.0,0.0,0.0,0.0,898,1698454865561297416,,-0.0202,0.2247,0.1247,0.0,0.0,0.0,0.0,0.0,0.0,0.0,0.0,0.0,
1698454865590459803,0,1698454865587262153,IMU1_Frame,899,1698454865587262153,,-0.9113273318548151,0.39574740941095565,-0.04238163086119262,-0.10521539585273144,0.0,0.0,0.0,0.0,0.0,0.0,0.0,0.0,0.0,-0.004599,0.000202,-0.00591,0.0,0.0,0.0,0.0,0.0,0.0,0.0,0.0,0.0,1.834,-0.177,-10.201,0.0,0.0,0.0,0.0,0.0,0.0,0.0,0.0,0.0,899,1698454865587262153,,-0.0241,0.2344,0.1324,0.0,0.0,0.0,0.0,0.0,0.0,0.0,0.0,0.0,
1698454865614431180,0,1698454865612347841,IMU1_Frame,900,1698454865612347841,,-0.9090502699459264,0.3981542081091699,-0.048618848534642004,-0.11285849920747587,0.0,0.0,0.0,0.0,0.0,0.0,0.0,0.0,0.0,-0.004809,-0.011897,-0.00205,0.0,0.0,0.0,0.0,0.0,0.0,0.0,0.0,0.0,2.055,-0.049,-9.902,0.0,0.0,0.0,0.0,0.0,0.0,0.0,0.0,0.0,900,1698454865612347841,,-0.0156,0.236,0.1194,0.0,0.0,0.0,0.0,0.0,0.0,0.0,0.0,0.0,
1698454865640017369,0,1698454865637375831,IMU1_Frame,901,1698454865637375831,,-0.9084159210034382,0.40065973957659246,-0.041737894223598374,-0.11184916510940954,0.0,0.0,0.0,0.0,0.0,0.0,0.0,0.0,0.0,0.000358,0.004016,-0.00381,0.0,0.0,0.0,0.0,0.0,0.0,0.0,0.0,0.0,1.935,0.095,-9.94,0.0,0.0,0.0,0.0,0.0,0.0,0.0,0.0,0.0,901,1698454865637375831,,-0.0188,0.2247,0.1241,0.0,0.0,0.0,0.0,0.0,0.0,0.0,0.0,0.0,
1698454865663553168,0,1698454865661531925,IMU1_Frame,902,1698454865661531925,,-0.907164533863377,0.4026557111599183,-0.045825008257346374,-0.1132296577269242,0.0,0.0,0.0,0.0,0.0,0.0,0.0,0.0,0.0,0.003959,-0.008721,-0.00241,0.0,0.0,0.0,0.0,0.0,0.0,0.0,0.0,0.0,2.121,-0.082,-9.773,0.0,0.0,0.0,0.0,0.0,0.0,0.0,0.0,0.0,902,1698454865661531925,,-0.0198,0.2361,0.1259,0.0,0.0,0.0,0.0,0.0,0.0,0.0,0.0,0.0,
1698454865689211646,0,1698454865686399459,IMU1_Frame,903,1698454865686399459,,-0.9073146268090344,0.4033243916686747,-0.048387139343680816,-0.10848173952150339,0.0,0.0,0.0,0.0,0.0,0.0,0.0,0.0,0.0,0.007726,0.012066,-0.00339,0.0,0.0,0.0,0.0,0.0,0.0,0.0,0.0,0.0,2.087,0.053,-9.825,0.0,0.0,0.0,0.0,0.0,0.0,0.0,0.0,0.0,903,1698454865686399459,,-0.0127,0.2397,0.1193,0.0,0.0,0.0,0.0,0.0,0.0,0.0,0.0,0.0,
1698454865712376240,0,1698454865711301326,IMU1_Frame,904,1698454865711301326,,-0.9071296547940342,0.4048120429163986,-0.05257584772226523,-0.10236591004525555,0.0,0.0,0.0,0.0,0.0,0.0,0.0,0.0,0.0,0.012477,-0.009549,-0.00283,0.0,0.0,0.0,0.0,0.0,0.0,0.0,0.0,0.0,1.99,0.122,-9.842,0.0,0.0,0.0,0.0,0.0,0.0,0.0,0.0,0.0,904,1698454865711301326,,-0.0171,0.2322,0.1223,0.0,0.0,0.0,0.0,0.0,0.0,0.0,0.0,0.0,
1698454865737887854,0,1698454865736305475,IMU1_Frame,905,1698454865736305475,,-0.9067536830098829,0.4054796134457546,-0.060784167708019074,-0.09843437602757218,0.0,0.0,0.0,0.0,0.0,0.0,0.0,0.0,0.0,0.009803,0.018108,-0.00119,0.0,0.0,0.0,0.0,0.0,0.0,0.0,0.0,0.0,1.961,0.194,-9.959,0.0,0.0,0.0,0.0,0.0,0.0,0.0,0.0,0.0,905,1698454865736305475,,-0.0213,0.2323,0.1253,0.0,0.0,0.0,0.0,0.0,0.0,0.0,0.0,0.0,
1698454865764081808,0,1698454865761607408,IMU1_Frame,906,1698454865761607408,,-0.9058542782900242,0.4077814896530447,-0.06673564708813826,-0.09321285645087116,0.0,0.0,0.0,0.0,0.0,0.0,0.0,0.0,0.0,0.014111,-0.007684,-0.00508,0.0,0.0,0.0,0.0,0.0,0.0,0.0,0.0,0.0,1.905,0.075,-10.116,0.0,0.0,0.0,0.0,0.0,0.0,0.0,0.0,0.0,906,1698454865761607408,,-0.0201,0.2247,0.1212,0.0,0.0,0.0,0.0,0.0,0.0,0.0,0.0,0.0,
1698454865788595731,0,1698454865787407875,IMU1_Frame,907,1698454865787407875,,-0.9046337427035893,0.41005130017849944,-0.07432824105797531,-0.0892806550448969,0.0,0.0,0.0,0.0,0.0,0.0,0.0,0.0,0.0,0.009034,0.016783,-0.00502,0.0,0.0,0.0,0.0,0.0,0.0,0.0,0.0,0.0,2.063,0.118,-10.089,0.0,0.0,0.0,0.0,0.0,0.0,0.0,0.0,0.0,907,1698454865787407875,,-0.0199,0.2342,0.1247,0.0,0.0,0.0,0.0,0.0,0.0,0.0,0.0,0.0,
1698454865815034075,0,1698454865812409400,IMU1_Frame,908,1698454865812409400,,-0.9036207451960815,0.41321677581097527,-0.0755437226940574,-0.08375315517151626,0.0,0.0,0.0,0.0,0.0,0.0,0.0,0.0,0.0,0.010396,-0.003592,-0.00622,0.0,0.0,0.0,0.0,0.0,0.0,0.0,0.0,0.0,1.884,0.035,-10.21,0.0,0.0,0.0,0.0,0.0,0.0,0.0,0.0,0.0,908,1698454865812409400,,-0.0183,0.2379,0.1183,0.0,0.0,0.0,0.0,0.0,0.0,0.0,0.0,0.0,
1698454865839835244,0,1698454865837203741,IMU1_Frame,909,1698454865837203741,,-0.9015028923152486,0.41596535893158776,-0.08527430798753977,-0.08362803186374165,0.0,0.0,0.0,0.0,0.0,0.0,0.0,0.0,0.0,0.00475,0.009414,-0.00616,0.0,0.0,0.0,0.0,0.0,0.0,0.0,0.0,0.0,2.022,-0.098,-10.057,0.0,0.0,0.0,0.0,0.0,0.0,0.0,0.0,0.0,909,1698454865837203741,,-0.0257,0.2267,0.1272,0.0,0.0,0.0,0.0,0.0,0.0,0.0,0.0,0.0,
1698454865863211290,0,1698454865862064599,IMU1_Frame,910,1698454865862064599,,-0.9005300080719348,0.41917303756528934,-0.0847765526784201,-0.07843854445495868,0.0,0.0,0.0,0.0,0.0,0.0,0.0,0.0,0.0,0.007674,-0.007252,-0.00506,0.0,0.0,0.0,0.0,0.0,0.0,0.0,0.0,0.0,1.84,-0.136,-9.914,0.0,0.0,0.0,0.0,0.0,0.0,0.0,0.0,0.0,910,1698454865862064599,,-0.02,0.2284,0.1189,0.0,0.0,0.0,0.0,0.0,0.0,0.0,0.0,0.0,
1698454865890564229,0,1698454865886993885,IMU1_Frame,911,1698454865886993885,,-0.898501240216099,0.4212993578578788,-0.09500841005429186,-0.07858609557438559,0.0,0.0,0.0,0.0,0.0,0.0,0.0,0.0,0.0,0.008684,0.001794,-0.00235,0.0,0.0,0.0,0.0,0.0,0.0,0.0,0.0,0.0,1.946,-0.066,-9.84,0.0,0.0,0.0,0.0,0.0,0.0,0.0,0.0,0.0,911,1698454865886993885,,-0.02,0.2245,0.1108,0.0,0.0,0.0,0.0,0.0,0.0,0.0,0.0,0.0,
1698454865914543154,0,1698454865912314414,IMU1_Frame,912,1698454865912314414,,-0.8982076019721938,0.4233690837251825,-0.09479808892457645,-0.07067563258513129,0.0,0.0,0.0,0.0,0.0,0.0,0.0,0.0,0.0,0.011057,0.006376,-0.00386,0.0,0.0,0.0,0.0,0.0,0.0,0.0,0.0,0.0,1.714,-0.03,-10.183,0.0,0.0,0.0,0.0,0.0,0.0,0.0,0.0,0.0,912,1698454865912314414,,-0.024,0.2284,0.1138,0.0,0.0,0.0,0.0,0.0,0.0,0.0,0.0,0.0,
1698454865938481045,0,1698454865937011241,IMU1_Frame,913,1698454865937011241,,-0.8970652237278076,0.4245215457482905,-0.10384130939052821,-0.06536378230887033,0.0,0.0,0.0,0.0,0.0,0.0,0.0,0.0,0.0,0.013637,-0.019904,-0.00266,0.0,0.0,0.0,0.0,0.0,0.0,0.0,0.0,0.0,1.871,-0.141,-9.783,0.0,0.0,0.0,0.0,0.0,0.0,0.0,0.0,0.0,913,1698454865937011241,,-0.0286,0.221,0.125,0.0,0.0,0.0,0.0,0.0,0.0,0.0,0.0,0.0,
1698454865965450975,0,1698454865962304115,IMU1_Frame,914,1698454865962304115,,-0.8963924737595488,0.4255418679397457,-0.108274011489097,-0.06059199661380603,0.0,0.0,0.0,0.0,0.0,0.0,0.0,0.0,0.0,0.00633,0.009967,-0.00484,0.0,0.0,0.0,0.0,0.0,0.0,0.0,0.0,0.0,1.926,-0.207,-9.996,0.0,0.0,0.0,0.0,0.0,0.0,0.0,0.0,0.0,914,1698454865962304115,,-0.0243,0.2248,0.1231,0.0,0.0,0.0,0.0,0.0,0.0,0.0,0.0,0.0,
1698454865989543426,0,1698454865987072229,IMU1_Frame,915,1698454865987072229,,-0.8956912447796052,0.428482261813906,-0.10529568784549342,-0.05525362845230414,0.0,0.0,0.0,0.0,0.0,0.0,0.0,0.0,0.0,0.003534,-0.012879,-0.00682,0.0,0.0,0.0,0.0,0.0,0.0,0.0,0.0,0.0,1.952,-0.189,-9.779,0.0,0.0,0.0,0.0,0.0,0.0,0.0,0.0,0.0,915,1698454865987072229,,-0.0225,0.2361,0.1236,0.0,0.0,0.0,0.0,0.0,0.0,0.0,0.0,0.0,
1698454866015677141,0,1698454866012122869,IMU1_Frame,916,1698454866012122869,,-0.8938321236419006,0.4303773577007904,-0.1114201619299837,-0.05852360412510893,0.0,0.0,0.0,0.0,0.0,0.0,0.0,0.0,0.0,-0.002276,0.015127,-0.00322,0.0,0.0,0.0,0.0,0.0,0.0,0.0,0.0,0.0,2.049,0.01,-9.857,0.0,0.0,0.0,0.0,0.0,0.0,0.0,0.0,0.0,916,1698454866012122869,,-0.024,0.2323,0.1208,0.0,0.0,0.0,0.0,0.0,0.0,0.0,0.0,0.0,
1698454866040445362,0,1698454866037243604,IMU1_Frame,917,1698454866037243604,,-0.8925323649566812,0.43474622641018573,-0.10558206105620783,-0.05686936354541435,0.0,0.0,0.0,0.0,0.0,0.0,0.0,0.0,0.0,-0.000533,-0.007671,-0.00575,0.0,0.0,0.0,0.0,0.0,0.0,0.0,0.0,0.0,1.92,-0.039,-9.869,0.0,0.0,0.0,0.0,0.0,0.0,0.0,0.0,0.0,917,1698454866037243604,,-0.0216,0.2229,0.1265,0.0,0.0,0.0,0.0,0.0,0.0,0.0,0.0,0.0,
1698454866065477197,0,1698454866062009334,IMU1_Frame,918,1698454866062009334,,-0.8906192089771565,0.43681992483725457,-0.11057998588330127,-0.06130126090161775,0.0,0.0,0.0,0.0,0.0,0.0,0.0,0.0,0.0,-0.001129,0.005312,-0.0045,0.0,0.0,0.0,0.0,0.0,0.0,0.0,0.0,0.0,2.044,-0.066,-9.824,0.0,0.0,0.0,0.0,0.0,0.0,0.0,0.0,0.0,918,1698454866062009334,,-0.0226,0.2381,0.1318,0.0,0.0,0.0,0.0,0.0,0.0,0.0,0.0,0.0,
1698454866090231190,0,1698454866087230205,IMU1_Frame,919,1698454866087230205,,-0.889284741234455,0.44008801754725435,-0.10836488124743343,-0.06125551674033538,0.0,0.0,0.0,0.0,0.0,0.0,0.0,0.0,0.0,-0.000904,-2e-05,-0.00561,0.0,0.0,0.0,0.0,0.0,0.0,0.0,0.0,0.0,1.942,-0.155,-9.875,0.0,0.0,0.0,0.0,0.0,0.0,0.0,0.0,0.0,919,1698454866087230205,,-0.0124,0.2453,0.1146,0.0,0.0,0.0,0.0,0.0,0.0,0.0,0.0,0.0,
1698454866113853688,0,1698454866111989259,IMU1_Frame,920,1698454866111989259,,-0.8871882376197147,0.44270215309204075,-0.11218183266086747,-0.06578047656976266,0.0,0.0,0.0,0.0,0.0,0.0,0.0,0.0,0.0,-0.003744,-0.001317,-0.0059,0.0,0.0,0.0,0.0,0.0,0.0,0.0,0.0,0.0,1.89,0.008,-9.81,0.0,0.0,0.0,0.0,0.0,0.0,0.0,0.0,0.0,920,1698454866111989259,,-0.0143,0.2322,0.1199,0.0,0.0,0.0,0.0,0.0,0.0,0.0,0.0,0.0,
1698454866139106493,0,1698454866137012958,IMU1_Frame,921,1698454866137012958,,-0.8850594393873338,0.4464531546935689,-0.1121315947167378,-0.0691077049381614,0.0,0.0,0.0,0.0,0.0,0.0,0.0,0.0,0.0,-0.00201,0.004904,-0.00682,0.0,0.0,0.0,0.0,0.0,0.0,0.0,0.0,0.0,1.881,-0.043,-9.909,0.0,0.0,0.0,0.0,0.0,0.0,0.0,0.0,0.0,921,1698454866137012958,,-0.0187,0.2305,0.1299,0.0,0.0,0.0,0.0,0.0,0.0,0.0,0.0,0.0,
1698454866163580503,0,1698454866161977529,IMU1_Frame,922,1698454866161977529,,-0.8822516537488814,0.44963725487808553,-0.11672463279606281,-0.07637878358345049,0.0,0.0,0.0,0.0,0.0,0.0,0.0,0.0,0.0,-0.006787,0.004744,-0.0055,0.0,0.0,0.0,0.0,0.0,0.0,0.0,0.0,0.0,2.18,0.04,-9.601,0.0,0.0,0.0,0.0,0.0,0.0,0.0,0.0,0.0,922,1698454866161977529,,-0.013,0.2341,0.1251,0.0,0.0,0.0,0.0,0.0,0.0,0.0,0.0,0.0,
1698454866188612111,0,1698454866186816453,IMU1_Frame,923,1698454866186816453,,-0.8798491877891795,0.4544936216602912,-0.11386924134213168,-0.0795911458203755,0.0,0.0,0.0,0.0,0.0,0.0,0.0,0.0,0.0,-0.007541,0.025652,-0.00679,0.0,0.0,0.0,0.0,0.0,0.0,0.0,0.0,0.0,1.905,-0.068,-10.082,0.0,0.0,0.0,0.0,0.0,0.0,0.0,0.0,0.0,923,1698454866186816453,,-0.0187,0.2286,0.1299,0.0,0.0,0.0,0.0,0.0,0.0,0.0,0.0,0.0,
1698454866214874386,0,1698454866211860895,IMU1_Frame,924,1698454866211860895,,-0.8770654014805205,0.4581805151188479,-0.11634776972979892,-0.08538204477606781,0.0,0.0,0.0,0.0,0.0,0.0,0.0,0.0,0.0,-0.001507,-0.016886,-0.00532,0.0,0.0,0.0,0.0,0.0,0.0,0.0,0.0,0.0,1.912,0.013,-9.938,0.0,0.0,0.0,0.0,0.0,0.0,0.0,0.0,0.0,924,1698454866211860895,,-0.0158,0.2303,0.1205,0.0,0.0,0.0,0.0,0.0,0.0,0.0,0.0,0.0,
1698454866238940879,0,1698454866236905097,IMU1_Frame,925,1698454866236905097,,-0.8739502442711473,0.46162923977939774,-0.12143480577051009,-0.09144945853626502,0.0,0.0,0.0,0.0,0.0,0.0,0.0,0.0,0.0,-1e-05,0.008417,-0.00614,0.0,0.0,0.0,0.0,0.0,0.0,0.0,0.0,0.0,1.947,0.002,-9.822,0.0,0.0,0.0,0.0,0.0,0.0,0.0,0.0,0.0,925,1698454866236905097,,-0.0186,0.2285,0.1218,0.0,0.0,0.0,0.0,0.0,0.0,0.0,0.0,0.0,
1698454866264699799,0,1698454866261862039,IMU1_Frame,926,1698454866261862039,,-0.8714743080480933,0.4653484369159837,-0.12388031312931704,-0.0929356265967469,0.0,0.0,0.0,0.0,0.0,0.0,0.0,0.0,0.0,0.003789,-0.006842,-0.00537,0.0,0.0,0.0,0.0,0.0,0.0,0.0,0.0,0.0,1.955,0.055,-9.892,0.0,0.0,0.0,0.0,0.0,0.0,0.0,0.0,0.0,926,1698454866261862039,,-0.0217,0.2229,0.1288,0.0,0.0,0.0,0.0,0.0,0.0,0.0,0.0,0.0,
1698454866288918772,0,1698454866286934852,IMU1_Frame,927,1698454866286934852,,-0.8693989194425468,0.46748237302204854,-0.1291052253507334,-0.09453883103224356,0.0,0.0,0.0,0.0,0.0,0.0,0.0,0.0,0.0,0.003095,0.004304,-0.005,0.0,0.0,0.0,0.0,0.0,0.0,0.0,0.0,0.0,1.942,-0.111,-9.853,0.0,0.0,0.0,0.0,0.0,0.0,0.0,0.0,0.0,927,1698454866286934852,,-0.0184,0.2341,0.1195,0.0,0.0,0.0,0.0,0.0,0.0,0.0,0.0,0.0,
1698454866313924160,0,1698454866311872720,IMU1_Frame,928,1698454866311872720,,-0.8671364372989349,0.47144283051530766,-0.13068037947117633,-0.09348098782904851,0.0,0.0,0.0,0.0,0.0,0.0,0.0,0.0,0.0,0.005342,0.003022,-0.00443,0.0,0.0,0.0,0.0,0.0,0.0,0.0,0.0,0.0,2.01,0.002,-9.859,0.0,0.0,0.0,0.0,0.0,0.0,0.0,0.0,0.0,928,1698454866311872720,,-0.0254,0.2362,0.1284,0.0,0.0,0.0,0.0,0.0,0.0,0.0,0.0,0.0,
1698454866339130705,0,1698454866336923122,IMU1_Frame,929,1698454866336923122,,-0.8647046953386052,0.47443787134699894,-0.13492355025646463,-0.09481630491265504,0.0,0.0,0.0,0.0,0.0,0.0,0.0,0.0,0.0,0.003442,-0.005511,-0.00633,0.0,0.0,0.0,0.0,0.0,0.0,0.0,0.0,0.0,1.9,0.112,-9.72,0.0,0.0,0.0,0.0,0.0,0.0,0.0,0.0,0.0,929,1698454866336923122,,-0.017,0.2321,0.113,0.0,0.0,0.0,0.0,0.0,0.0,0.0,0.0,0.0,
1698454866365019021,0,1698454866361855983,IMU1_Frame,930,1698454866361855983,,-0.8621399205002219,0.4785929844520627,-0.13598493628989702,-0.09576852204858972,0.0,0.0,0.0,0.0,0.0,0.0,0.0,0.0,0.0,0.00116,0.007746,-0.00776,0.0,0.0,0.0,0.0,0.0,0.0,0.0,0.0,0.0,2.006,0.152,-9.91,0.0,0.0,0.0,0.0,0.0,0.0,0.0,0.0,0.0,930,1698454866361855983,,-0.0171,0.2302,0.1142,0.0,0.0,0.0,0.0,0.0,0.0,0.0,0.0,0.0,
1698454866390147750,0,1698454866386952161,IMU1_Frame,931,1698454866386952161,,-0.8589330712725657,0.4819335720621919,-0.1418308958874099,-0.09928750256416241,0.0,0.0,0.0,0.0,0.0,0.0,0.0,0.0,0.0,0.003515,-0.000106,-0.00606,0.0,0.0,0.0,0.0,0.0,0.0,0.0,0.0,0.0,2.044,-0.009,-9.884,0.0,0.0,0.0,0.0,0.0,0.0,0.0,0.0,0.0,931,1698454866386952161,,-0.0185,0.2322,0.1206,0.0,0.0,0.0,0.0,0.0,0.0,0.0,0.0,0.0,
1698454866413706801,0,1698454866411811351,IMU1_Frame,932,1698454866411811351,,-0.8561229809454327,0.48557845239840386,-0.14598417589432316,-0.09977789560785796,0.0,0.0,0.0,0.0,0.0,0.0,0.0,0.0,0.0,0.001694,0.019865,-0.00628,0.0,0.0,0.0,0.0,0.0,0.0,0.0,0.0,0.0,1.923,-0.061,-10.155,0.0,0.0,0.0,0.0,0.0,0.0,0.0,0.0,0.0,932,1698454866411811351,,-0.0244,0.219,0.1196,0.0,0.0,0.0,0.0,0.0,0.0,0.0,0.0,0.0,
1698454866439755756,0,1698454866436941385,IMU1_Frame,933,1698454866436941385,,-0.8543604525635223,0.48840943235392864,-0.14815103563630788,-0.0978555778842266,0.0,0.0,0.0,0.0,0.0,0.0,0.0,0.0,0.0,0.006154,-0.007447,-0.00738,0.0,0.0,0.0,0.0,0.0,0.0,0.0,0.0,0.0,2.012,-0.084,-10.113,0.0,0.0,0.0,0.0,0.0,0.0,0.0,0.0,0.0,933,1698454866436941385,,-0.0258,0.223,0.1295,0.0,0.0,0.0,0.0,0.0,0.0,0.0,0.0,0.0,
1698454866463759929,0,1698454866461799383,IMU1_Frame,934,1698454866461799383,,-0.8515778040845735,0.4916650380764533,-0.15228957486312122,-0.09944153715518064,0.0,0.0,0.0,0.0,0.0,0.0,0.0,0.0,0.0,0.003667,-0.001844,-0.00675,0.0,0.0,0.0,0.0,0.0,0.0,0.0,0.0,0.0,1.978,-0.161,-9.875,0.0,0.0,0.0,0.0,0.0,0.0,0.0,0.0,0.0,934,1698454866461799383,,-0.0255,0.2324,0.126,0.0,0.0,0.0,0.0,0.0,0.0,0.0,0.0,0.0,
1698454866488362193,0,1698454866486839532,IMU1_Frame,935,1698454866486839532,,-0.8497961340336034,0.4953128745807304,-0.15155439752007224,-0.09768803124458687,0.0,0.0,0.0,0.0,0.0,0.0,0.0,0.0,0.0,0.003881,-0.000355,-0.00706,0.0,0.0,0.0,0.0,0.0,0.0,0.0,0.0,0.0,1.899,-0.069,-10.062,0.0,0.0,0.0,0.0,0.0,0.0,0.0,0.0,0.0,935,1698454866486839532,,-0.02,0.2304,0.1236,0.0,0.0,0.0,0.0,0.0,0.0,0.0,0.0,0.0,
1698454866517027423,0,1698454866516045570,IMU1_Frame,936,1698454866516045570,,-0.8467688199956205,0.49850664326028477,-0.15627963989266172,-0.10025151501901348,0.0,0.0,0.0,0.0,0.0,0.0,0.0,0.0,0.0,0.002582,-0.010137,-0.0068,0.0,0.0,0.0,0.0,0.0,0.0,0.0,0.0,0.0,1.908,-0.151,-9.851,0.0,0.0,0.0,0.0,0.0,0.0,0.0,0.0,0.0,936,1698454866516045570,,-0.0214,0.2266,0.1207,0.0,0.0,0.0,0.0,0.0,0.0,0.0,0.0,0.0,
1698454866539245408,0,1698454866536787509,IMU1_Frame,937,1698454866536787509,,-0.844818356915297,0.5018117200349497,-0.15612831003208305,-0.10045343329637425,0.0,0.0,0.0,0.0,0.0,0.0,0.0,0.0,0.0,-0.001005,8.6e-05,-0.00534,0.0,0.0,0.0,0.0,0.0,0.0,0.0,0.0,0.0,1.868,-0.165,-9.866,0.0,0.0,0.0,0.0,0.0,0.0,0.0,0.0,0.0,937,1698454866536787509,,-0.0229,0.2287,0.1318,0.0,0.0,0.0,0.0,0.0,0.0,0.0,0.0,0.0,
1698454866565125815,0,1698454866561776399,IMU1_Frame,938,1698454866561776399,,-0.8419356707855638,0.5056979116846323,-0.1567728330594172,-0.10409720068853293,0.0,0.0,0.0,0.0,0.0,0.0,0.0,0.0,0.0,-0.002057,0.000347,-0.00587,0.0,0.0,0.0,0.0,0.0,0.0,0.0,0.0,0.0,1.965,-0.129,-9.882,0.0,0.0,0.0,0.0,0.0,0.0,0.0,0.0,0.0,938,1698454866561776399,,-0.0243,0.2268,0.1301,0.0,0.0,0.0,0.0,0.0,0.0,0.0,0.0,0.0,
1698454866589795092,0,1698454866586748123,IMU1_Frame,939,1698454866586748123,,-0.8393921544078032,0.5087665182161354,-0.15766112742325633,-0.10826084223062836,0.0,0.0,0.0,0.0,0.0,0.0,0.0,0.0,0.0,-0.005737,0.013677,-0.0025,0.0,0.0,0.0,0.0,0.0,0.0,0.0,0.0,0.0,1.903,-0.149,-10.04,0.0,0.0,0.0,0.0,0.0,0.0,0.0,0.0,0.0,939,1698454866586748123,,-0.0203,0.2249,0.1329,0.0,0.0,0.0,0.0,0.0,0.0,0.0,0.0,0.0,
1698454866613468978,0,1698454866611742496,IMU1_Frame,940,1698454866611742496,,-0.8372464435377689,0.5120490982208252,-0.15642154092896776,-0.11115941403230152,0.0,0.0,0.0,0.0,0.0,0.0,0.0,0.0,0.0,-0.001228,-0.007283,-0.00687,0.0,0.0,0.0,0.0,0.0,0.0,0.0,0.0,0.0,1.861,-0.097,-9.817,0.0,0.0,0.0,0.0,0.0,0.0,0.0,0.0,0.0,940,1698454866611742496,,-0.0173,0.2285,0.1281,0.0,0.0,0.0,0.0,0.0,0.0,0.0,0.0,0.0,
1698454866638338796,0,1698454866636597156,IMU1_Frame,941,1698454866636597156,,-0.8348986799790271,0.5138087715905638,-0.16024021501857,-0.11518599696437247,0.0,0.0,0.0,0.0,0.0,0.0,0.0,0.0,0.0,-0.002325,0.005486,-0.00421,0.0,0.0,0.0,0.0,0.0,0.0,0.0,0.0,0.0,1.964,-0.04,-9.843,0.0,0.0,0.0,0.0,0.0,0.0,0.0,0.0,0.0,941,1698454866636597156,,-0.0141,0.2398,0.1222,0.0,0.0,0.0,0.0,0.0,0.0,0.0,0.0,0.0,
1698454866664949743,0,1698454866661694049,IMU1_Frame,942,1698454866661694049,,-0.8328325472970435,0.5172489795140055,-0.15786693309085467,-0.11798929100102826,0.0,0.0,0.0,0.0,0.0,0.0,0.0,0.0,0.0,-0.006964,0.001173,-0.00584,0.0,0.0,0.0,0.0,0.0,0.0,0.0,0.0,0.0,2.039,-0.107,-9.86,0.0,0.0,0.0,0.0,0.0,0.0,0.0,0.0,0.0,942,1698454866661694049,,-0.0171,0.2323,0.1235,0.0,0.0,0.0,0.0,0.0,0.0,0.0,0.0,0.0,
1698454866689483621,0,1698454866686815500,IMU1_Frame,943,1698454866686815500,,-0.8294189055717209,0.5204695159030254,-0.1594413547156556,-0.12551580180326122,0.0,0.0,0.0,0.0,0.0,0.0,0.0,0.0,0.0,-0.009107,0.006836,-0.00517,0.0,0.0,0.0,0.0,0.0,0.0,0.0,0.0,0.0,1.944,-0.083,-10.031,0.0,0.0,0.0,0.0,0.0,0.0,0.0,0.0,0.0,943,1698454866686815500,,-0.0204,0.2172,0.1247,0.0,0.0,0.0,0.0,0.0,0.0,0.0,0.0,0.0,
1698454866713431110,0,1698454866711743116,IMU1_Frame,944,1698454866711743116,,-0.8274288036361608,0.524793484357535,-0.15199995393938298,-0.12980519131196172,0.0,0.0,0.0,0.0,0.0,0.0,0.0,0.0,0.0,-0.009231,0.005644,-0.00653,0.0,0.0,0.0,0.0,0.0,0.0,0.0,0.0,0.0,2.095,0.022,-10.045,0.0,0.0,0.0,0.0,0.0,0.0,0.0,0.0,0.0,944,1698454866711743116,,-0.0186,0.2304,0.1276,0.0,0.0,0.0,0.0,0.0,0.0,0.0,0.0,0.0,
1698454866738822777,0,1698454866736653804,IMU1_Frame,945,1698454866736653804,,-0.8239130419780177,0.5293709532573776,-0.14922348628057536,-0.1366237323753644,0.0,0.0,0.0,0.0,0.0,0.0,0.0,0.0,0.0,-0.006886,-0.007283,-0.00756,0.0,0.0,0.0,0.0,0.0,0.0,0.0,0.0,0.0,1.933,-0.101,-9.999,0.0,0.0,0.0,0.0,0.0,0.0,0.0,0.0,0.0,945,1698454866736653804,,-0.0202,0.2248,0.1259,0.0,0.0,0.0,0.0,0.0,0.0,0.0,0.0,0.0,
1698454866763476465,0,1698454866761786222,IMU1_Frame,946,1698454866761786222,,-0.8216906826215027,0.5333122213986371,-0.14347198460527866,-0.14077743509981544,0.0,0.0,0.0,0.0,0.0,0.0,0.0,0.0,0.0,-0.00839,0.001345,-0.00444,0.0,0.0,0.0,0.0,0.0,0.0,0.0,0.0,0.0,1.996,-0.023,-10.011,0.0,0.0,0.0,0.0,0.0,0.0,0.0,0.0,0.0,946,1698454866761786222,,-0.0243,0.2267,0.1277,0.0,0.0,0.0,0.0,0.0,0.0,0.0,0.0,0.0,
1698454866789355381,0,1698454866786608457,IMU1_Frame,947,1698454866786608457,,-0.8186975879204343,0.5383566275924409,-0.13773682625551106,-0.14468921090950654,0.0,0.0,0.0,0.0,0.0,0.0,0.0,0.0,0.0,-0.005948,-0.003534,-0.00757,0.0,0.0,0.0,0.0,0.0,0.0,0.0,0.0,0.0,1.995,0.047,-9.854,0.0,0.0,0.0,0.0,0.0,0.0,0.0,0.0,0.0,947,1698454866786608457,,-0.0187,0.2285,0.1241,0.0,0.0,0.0,0.0,0.0,0.0,0.0,0.0,0.0,
1698454866814452181,0,1698454866811754703,IMU1_Frame,948,1698454866811754703,,-0.8155706081850563,0.5416409187569752,-0.13727385113213336,-0.15041804409082682,0.0,0.0,0.0,0.0,0.0,0.0,0.0,0.0,0.0,-0.004873,0.002436,-0.00461,0.0,0.0,0.0,0.0,0.0,0.0,0.0,0.0,0.0,1.895,0.171,-9.93,0.0,0.0,0.0,0.0,0.0,0.0,0.0,0.0,0.0,948,1698454866811754703,,-0.0144,0.2283,0.1153,0.0,0.0,0.0,0.0,0.0,0.0,0.0,0.0,0.0,
1698454866839101068,0,1698454866836704969,IMU1_Frame,949,1698454866836704969,,-0.81272922960881,0.5460059381383611,-0.13290304201021344,-0.1539009300866946,0.0,0.0,0.0,0.0,0.0,0.0,0.0,0.0,0.0,-0.003932,-0.004534,-0.00805,0.0,0.0,0.0,0.0,0.0,0.0,0.0,0.0,0.0,1.956,0.193,-9.895,0.0,0.0,0.0,0.0,0.0,0.0,0.0,0.0,0.0,949,1698454866836704969,,-0.02,0.2284,0.1189,0.0,0.0,0.0,0.0,0.0,0.0,0.0,0.0,0.0,
1698454866863096338,0,1698454866861513614,IMU1_Frame,950,1698454866861513614,,-0.8095408776492068,0.5493040511499612,-0.13406717741232407,-0.15790699397393795,0.0,0.0,0.0,0.0,0.0,0.0,0.0,0.0,0.0,-0.001405,0.000166,-0.00349,0.0,0.0,0.0,0.0,0.0,0.0,0.0,0.0,0.0,1.705,0.117,-9.983,0.0,0.0,0.0,0.0,0.0,0.0,0.0,0.0,0.0,950,1698454866861513614,,-0.0185,0.2284,0.116,0.0,0.0,0.0,0.0,0.0,0.0,0.0,0.0,0.0,
1698454866889019612,0,1698454866886542081,IMU1_Frame,951,1698454866886542081,,-0.806564664557031,0.5536406747850252,-0.131759014945162,-0.15992187809135694,0.0,0.0,0.0,0.0,0.0,0.0,0.0,0.0,0.0,9e-06,-0.001937,-0.00731,0.0,0.0,0.0,0.0,0.0,0.0,0.0,0.0,0.0,1.902,0.133,-9.935,0.0,0.0,0.0,0.0,0.0,0.0,0.0,0.0,0.0,951,1698454866886542081,,-0.0231,0.2191,0.1225,0.0,0.0,0.0,0.0,0.0,0.0,0.0,0.0,0.0,
1698454866913035901,0,1698454866911535501,IMU1_Frame,952,1698454866911535501,,-0.8034079170823497,0.5576396061962361,-0.1319048419081616,-0.1617865910756815,0.0,0.0,0.0,0.0,0.0,0.0,0.0,0.0,0.0,-6.2e-05,0.000533,-0.00686,0.0,0.0,0.0,0.0,0.0,0.0,0.0,0.0,0.0,1.96,0.122,-9.95,0.0,0.0,0.0,0.0,0.0,0.0,0.0,0.0,0.0,952,1698454866911535501,,-0.0258,0.2249,0.1319,0.0,0.0,0.0,0.0,0.0,0.0,0.0,0.0,0.0,
1698454866938530695,0,1698454866936579942,IMU1_Frame,953,1698454866936579942,,-0.8015195658833015,0.5616239892475685,-0.12735382045256874,-0.16101516892524725,0.0,0.0,0.0,0.0,0.0,0.0,0.0,0.0,0.0,0.001693,-0.017998,-0.00802,0.0,0.0,0.0,0.0,0.0,0.0,0.0,0.0,0.0,1.911,-0.057,-9.936,0.0,0.0,0.0,0.0,0.0,0.0,0.0,0.0,0.0,953,1698454866936579942,,-0.0267,0.2381,0.1302,0.0,0.0,0.0,0.0,0.0,0.0,0.0,0.0,0.0,
1698454866964667263,0,1698454866961463212,IMU1_Frame,954,1698454866961463212,,-0.7980798895315696,0.5657870982803997,-0.12663462809525142,-0.1640643785588457,0.0,0.0,0.0,0.0,0.0,0.0,0.0,0.0,0.0,-0.00136,-0.000247,-0.00815,0.0,0.0,0.0,0.0,0.0,0.0,0.0,0.0,0.0,1.887,-0.056,-10.067,0.0,0.0,0.0,0.0,0.0,0.0,0.0,0.0,0.0,954,1698454866961463212,,-0.0257,0.2248,0.1284,0.0,0.0,0.0,0.0,0.0,0.0,0.0,0.0,0.0,
1698454866988581574,0,1698454866986588001,IMU1_Frame,955,1698454866986588001,,-0.7959190715506756,0.5700053003753548,-0.12053890005102573,-0.16455139823289527,0.0,0.0,0.0,0.0,0.0,0.0,0.0,0.0,0.0,-0.003166,-0.021862,-0.00608,0.0,0.0,0.0,0.0,0.0,0.0,0.0,0.0,0.0,1.955,-0.143,-9.884,0.0,0.0,0.0,0.0,0.0,0.0,0.0,0.0,0.0,955,1698454866986588001,,-0.0199,0.2342,0.1259,0.0,0.0,0.0,0.0,0.0,0.0,0.0,0.0,0.0,
1698454867014042494,0,1698454867011640787,IMU1_Frame,956,1698454867011640787,,-0.7921280236960903,0.5754084719765528,-0.11534599207601443,-0.16773069654936495,0.0,0.0,0.0,0.0,0.0,0.0,0.0,0.0,0.0,-0.005607,0.007976,-0.00494,0.0,0.0,0.0,0.0,0.0,0.0,0.0,0.0,0.0,1.987,0.064,-9.866,0.0,0.0,0.0,0.0,0.0,0.0,0.0,0.0,0.0,956,1698454867011640787,,-0.0141,0.2398,0.1222,0.0,0.0,0.0,0.0,0.0,0.0,0.0,0.0,0.0,
1698454867037647865,0,1698454867036525249,IMU1_Frame,957,1698454867036525249,,-0.7903699060671937,0.5781681987211176,-0.11178430956859409,-0.16894145052409848,0.0,0.0,0.0,0.0,0.0,0.0,0.0,0.0,0.0,-0.003329,-0.012509,-0.00498,0.0,0.0,0.0,0.0,0.0,0.0,0.0,0.0,0.0,1.991,-0.06,-9.756,0.0,0.0,0.0,0.0,0.0,0.0,0.0,0.0,0.0,957,1698454867036525249,,-0.02,0.2304,0.1236,0.0,0.0,0.0,0.0,0.0,0.0,0.0,0.0,0.0,
1698454867063597591,0,1698454867061492443,IMU1_Frame,958,1698454867061492443,,-0.788448760717723,0.5805672334193618,-0.11138921070660635,-0.16994905984039688,0.0,0.0,0.0,0.0,0.0,0.0,0.0,0.0,0.0,-0.00318,0.014467,-0.00254,0.0,0.0,0.0,0.0,0.0,0.0,0.0,0.0,0.0,2.1,0.062,-9.96,0.0,0.0,0.0,0.0,0.0,0.0,0.0,0.0,0.0,958,1698454867061492443,,-0.0128,0.2359,0.1193,0.0,0.0,0.0,0.0,0.0,0.0,0.0,0.0,0.0,
1698454867087548587,0,1698454867086438894,IMU1_Frame,959,1698454867086438894,,-0.7880796253128485,0.5819524578246488,-0.108430237174714,-0.16883342283104402,0.0,0.0,0.0,0.0,0.0,0.0,0.0,0.0,0.0,-0.002644,-0.004921,-0.00209,0.0,0.0,0.0,0.0,0.0,0.0,0.0,0.0,0.0,2.025,-0.122,-9.935,0.0,0.0,0.0,0.0,0.0,0.0,0.0,0.0,0.0,959,1698454867086438894,,-0.0142,0.234,0.1176,0.0,0.0,0.0,0.0,0.0,0.0,0.0,0.0,0.0,
1698454867113814454,0,1698454867112488031,IMU1_Frame,960,1698454867112488031,,-0.7855512550977091,0.5851793843622747,-0.10469618198825043,-0.17179354821670775,0.0,0.0,0.0,0.0,0.0,0.0,0.0,0.0,0.0,-0.009385,0.002542,-0.00423,0.0,0.0,0.0,0.0,0.0,0.0,0.0,0.0,0.0,1.786,0.051,-10.056,0.0,0.0,0.0,0.0,0.0,0.0,0.0,0.0,0.0,960,1698454867112488031,,-0.0229,0.2267,0.1271,0.0,0.0,0.0,0.0,0.0,0.0,0.0,0.0,0.0,
1698454867141068614,0,1698454867137433767,IMU1_Frame,961,1698454867137433767,,-0.7835461291953421,0.5879256973284277,-0.09804217562077182,-0.1754610202963152,0.0,0.0,0.0,0.0,0.0,0.0,0.0,0.0,0.0,-0.011932,-0.005572,-0.00378,0.0,0.0,0.0,0.0,0.0,0.0,0.0,0.0,0.0,1.672,-0.125,-10.093,0.0,0.0,0.0,0.0,0.0,0.0,0.0,0.0,0.0,961,1698454867137433767,,-0.0244,0.221,0.1266,0.0,0.0,0.0,0.0,0.0,0.0,0.0,0.0,0.0,
1698454867164205480,0,1698454867162350177,IMU1_Frame,962,1698454867162350177,,-0.7798513370670855,0.5910149454627045,-0.09409563701173163,-0.18351903827601135,0.0,0.0,0.0,0.0,0.0,0.0,0.0,0.0,0.0,-0.011266,-0.013795,-0.00819,0.0,0.0,0.0,0.0,0.0,0.0,0.0,0.0,0.0,1.79,-0.174,-9.987,0.0,0.0,0.0,0.0,0.0,0.0,0.0,0.0,0.0,962,1698454867162350177,,-0.0232,0.2192,0.1295,0.0,0.0,0.0,0.0,0.0,0.0,0.0,0.0,0.0,
1698454867188869719,0,1698454867187273979,IMU1_Frame,963,1698454867187273979,,-0.7773119387017244,0.5946022734756217,-0.08470519472211546,-0.18724133175257335,0.0,0.0,0.0,0.0,0.0,0.0,0.0,0.0,0.0,-0.010105,-0.01052,-0.00311,0.0,0.0,0.0,0.0,0.0,0.0,0.0,0.0,0.0,1.77,-0.203,-10.02,0.0,0.0,0.0,0.0,0.0,0.0,0.0,0.0,0.0,963,1698454867187273979,,-0.0201,0.2247,0.1224,0.0,0.0,0.0,0.0,0.0,0.0,0.0,0.0,0.0,
1698454867215301278,0,1698454867212268114,IMU1_Frame,964,1698454867212268114,,-0.7730648715932982,0.5984904122281495,-0.08256256239137884,-0.19329602704346213,0.0,0.0,0.0,0.0,0.0,0.0,0.0,0.0,0.0,-0.003965,-0.011766,-0.00635,0.0,0.0,0.0,0.0,0.0,0.0,0.0,0.0,0.0,1.891,0.079,-9.868,0.0,0.0,0.0,0.0,0.0,0.0,0.0,0.0,0.0,964,1698454867212268114,,-0.0173,0.2285,0.1246,0.0,0.0,0.0,0.0,0.0,0.0,0.0,0.0,0.0,
1698454867238393124,0,1698454867236449241,IMU1_Frame,965,1698454867236449241,,-0.7725388604765384,0.6019498510242611,-0.07184338832304066,-0.18888783301141004,0.0,0.0,0.0,0.0,0.0,0.0,0.0,0.0,0.0,0.000279,-0.016221,-0.00539,0.0,0.0,0.0,0.0,0.0,0.0,0.0,0.0,0.0,1.817,0.003,-10.037,0.0,0.0,0.0,0.0,0.0,0.0,0.0,0.0,0.0,965,1698454867236449241,,-0.0245,0.2211,0.1289,0.0,0.0,0.0,0.0,0.0,0.0,0.0,0.0,0.0,
1698454867264039712,0,1698454867261455774,IMU1_Frame,966,1698454867261455774,,-0.7690499861841684,0.6048873817767176,-0.07114194515219381,-0.19393864431154514,0.0,0.0,0.0,0.0,0.0,0.0,0.0,0.0,0.0,-0.00335,-0.007275,-0.00693,0.0,0.0,0.0,0.0,0.0,0.0,0.0,0.0,0.0,2.047,0.085,-9.853,0.0,0.0,0.0,0.0,0.0,0.0,0.0,0.0,0.0,966,1698454867261455774,,-0.0175,0.2209,0.1258,0.0,0.0,0.0,0.0,0.0,0.0,0.0,0.0,0.0,
1698454867290024803,0,1698454867287363529,IMU1_Frame,967,1698454867287363529,,-0.76607603349393,0.6099462562919618,-0.059909806158853135,-0.19365921219409177,0.0,0.0,0.0,0.0,0.0,0.0,0.0,0.0,0.0,-0.007734,-0.001175,-0.00731,0.0,0.0,0.0,0.0,0.0,0.0,0.0,0.0,0.0,1.881,0.081,-9.884,0.0,0.0,0.0,0.0,0.0,0.0,0.0,0.0,0.0,967,1698454867287363529,,-0.0186,0.2285,0.1229,0.0,0.0,0.0,0.0,0.0,0.0,0.0,0.0,0.0,
1698454867313404119,0,1698454867312274217,IMU1_Frame,968,1698454867312274217,,-0.7612221871294044,0.6144869532408137,-0.0563382561175305,-0.1994306070200455,0.0,0.0,0.0,0.0,0.0,0.0,0.0,0.0,0.0,-0.006722,-0.003724,-0.00801,0.0,0.0,0.0,0.0,0.0,0.0,0.0,0.0,0.0,2.014,0.184,-9.85,0.0,0.0,0.0,0.0,0.0,0.0,0.0,0.0,0.0,968,1698454867312274217,,-0.02,0.2285,0.1201,0.0,0.0,0.0,0.0,0.0,0.0,0.0,0.0,0.0,
1698454867338929175,0,1698454867337181329,IMU1_Frame,969,1698454867337181329,,-0.7562109681822642,0.620094487237012,-0.0499653890991935,-0.20280842781126196,0.0,0.0,0.0,0.0,0.0,0.0,0.0,0.0,0.0,-0.006008,-0.001282,-0.00914,0.0,0.0,0.0,0.0,0.0,0.0,0.0,0.0,0.0,1.833,0.1,-10.019,0.0,0.0,0.0,0.0,0.0,0.0,0.0,0.0,0.0,969,1698454867337181329,,-0.02,0.2284,0.1189,0.0,0.0,0.0,0.0,0.0,0.0,0.0,0.0,0.0,
1698454867362374628,0,1698454867361419439,IMU1_Frame,970,1698454867361419439,,-0.7531155227704232,0.6236327230185517,-0.04601107100571088,-0.20440698982081268,0.0,0.0,0.0,0.0,0.0,0.0,0.0,0.0,0.0,-0.003991,-0.002359,-0.00499,0.0,0.0,0.0,0.0,0.0,0.0,0.0,0.0,0.0,1.947,-0.042,-9.836,0.0,0.0,0.0,0.0,0.0,0.0,0.0,0.0,0.0,970,1698454867361419439,,-0.0257,0.2229,0.1214,0.0,0.0,0.0,0.0,0.0,0.0,0.0,0.0,0.0,
1698454867388312810,0,1698454867387184381,IMU1_Frame,971,1698454867387184381,,-0.7497877760720666,0.6278451616269903,-0.04168763177087577,-0.2046726294154123,0.0,0.0,0.0,0.0,0.0,0.0,0.0,0.0,0.0,-0.003777,0.004089,-0.00447,0.0,0.0,0.0,0.0,0.0,0.0,0.0,0.0,0.0,1.932,0.112,-9.862,0.0,0.0,0.0,0.0,0.0,0.0,0.0,0.0,0.0,971,1698454867387184381,,-0.0244,0.221,0.1266,0.0,0.0,0.0,0.0,0.0,0.0,0.0,0.0,0.0,
1698454867414804741,0,1698454867412203073,IMU1_Frame,972,1698454867412203073,,-0.7479984908001539,0.6308392268730052,-0.03745356123438612,-0.20282346597428813,0.0,0.0,0.0,0.0,0.0,0.0,0.0,0.0,0.0,-0.001343,-0.010502,-0.00609,0.0,0.0,0.0,0.0,0.0,0.0,0.0,0.0,0.0,1.866,-0.031,-9.913,0.0,0.0,0.0,0.0,0.0,0.0,0.0,0.0,0.0,972,1698454867412203073,,-0.0245,0.2192,0.1289,0.0,0.0,0.0,0.0,0.0,0.0,0.0,0.0,0.0,
1698454867439004445,0,1698454867437077760,IMU1_Frame,973,1698454867437077760,,-0.7454550708593791,0.6346006069294665,-0.031309470825845065,-0.20149075425784813,0.0,0.0,0.0,0.0,0.0,0.0,0.0,0.0,0.0,-0.002607,-0.008247,-0.00722,0.0,0.0,0.0,0.0,0.0,0.0,0.0,0.0,0.0,1.86,-0.094,-9.819,0.0,0.0,0.0,0.0,0.0,0.0,0.0,0.0,0.0,973,1698454867437077760,,-0.0247,0.2173,0.1324,0.0,0.0,0.0,0.0,0.0,0.0,0.0,0.0,0.0,
1698454867464929314,0,1698454867462223052,IMU1_Frame,974,1698454867462223052,,-0.7425979316974909,0.6380112731896546,-0.024772676319064435,-0.20217873683826232,0.0,0.0,0.0,0.0,0.0,0.0,0.0,0.0,0.0,-0.006273,-0.010312,-0.00548,0.0,0.0,0.0,0.0,0.0,0.0,0.0,0.0,0.0,1.845,-0.06,-9.868,0.0,0.0,0.0,0.0,0.0,0.0,0.0,0.0,0.0,974,1698454867462223052,,-0.0217,0.2211,0.13,0.0,0.0,0.0,0.0,0.0,0.0,0.0,0.0,0.0,
1698454867490032330,0,1698454867487308263,IMU1_Frame,975,1698454867487308263,,-0.738801806786012,0.6414497272760703,-0.018864129408286787,-0.20581127833247365,0.0,0.0,0.0,0.0,0.0,0.0,0.0,0.0,0.0,-0.006037,-0.006573,-0.00627,0.0,0.0,0.0,0.0,0.0,0.0,0.0,0.0,0.0,1.799,0.001,-9.975,0.0,0.0,0.0,0.0,0.0,0.0,0.0,0.0,0.0,975,1698454867487308263,,-0.0205,0.2153,0.1259,0.0,0.0,0.0,0.0,0.0,0.0,0.0,0.0,0.0,
1698454867513660867,0,1698454867512084484,IMU1_Frame,976,1698454867512084484,,-0.73581533020905,0.6444173706131239,-0.013230322036760028,-0.20767043809897,0.0,0.0,0.0,0.0,0.0,0.0,0.0,0.0,0.0,-0.00479,-0.011387,-0.00411,0.0,0.0,0.0,0.0,0.0,0.0,0.0,0.0,0.0,1.728,-0.02,-9.928,0.0,0.0,0.0,0.0,0.0,0.0,0.0,0.0,0.0,976,1698454867512084484,,-0.0144,0.2322,0.1246,0.0,0.0,0.0,0.0,0.0,0.0,0.0,0.0,0.0,
1698454867538284368,0,1698454867537078857,IMU1_Frame,977,1698454867537078857,,-0.7328207681005728,0.6469922487790468,-0.007420939662237808,-0.210522401456111,0.0,0.0,0.0,0.0,0.0,0.0,0.0,0.0,0.0,-0.006562,-0.002699,-0.0049,0.0,0.0,0.0,0.0,0.0,0.0,0.0,0.0,0.0,1.745,-0.064,-10.014,0.0,0.0,0.0,0.0,0.0,0.0,0.0,0.0,0.0,977,1698454867537078857,,-0.0131,0.2284,0.124,0.0,0.0,0.0,0.0,0.0,0.0,0.0,0.0,0.0,
1698454867564807361,0,1698454867562145233,IMU1_Frame,978,1698454867562145233,,-0.7301210175999192,0.6494646461966495,-0.00045276006516487,-0.212411788768521,0.0,0.0,0.0,0.0,0.0,0.0,0.0,0.0,0.0,-0.008347,-0.008348,-0.00497,0.0,0.0,0.0,0.0,0.0,0.0,0.0,0.0,0.0,1.716,-0.008,-10.093,0.0,0.0,0.0,0.0,0.0,0.0,0.0,0.0,0.0,978,1698454867562145233,,-0.0175,0.2209,0.1247,0.0,0.0,0.0,0.0,0.0,0.0,0.0,0.0,0.0,
1698454867589047643,0,1698454867587077379,IMU1_Frame,979,1698454867587077379,,-0.7261141759215815,0.6522722483252246,0.0074557250653899815,-0.21735576770407614,0.0,0.0,0.0,0.0,0.0,0.0,0.0,0.0,0.0,-0.011316,-0.0156,-0.00775,0.0,0.0,0.0,0.0,0.0,0.0,0.0,0.0,0.0,1.823,0.057,-9.947,0.0,0.0,0.0,0.0,0.0,0.0,0.0,0.0,0.0,979,1698454867587077379,,-0.0147,0.2208,0.1211,0.0,0.0,0.0,0.0,0.0,0.0,0.0,0.0,0.0,
1698454867614815232,0,1698454867612160921,IMU1_Frame,980,1698454867612160921,,-0.7215099058466514,0.6552949910092418,0.016872543116935354,-0.2229960712930184,0.0,0.0,0.0,0.0,0.0,0.0,0.0,0.0,0.0,-0.0135,-0.011875,-0.0068,0.0,0.0,0.0,0.0,0.0,0.0,0.0,0.0,0.0,1.777,-0.098,-9.902,0.0,0.0,0.0,0.0,0.0,0.0,0.0,0.0,0.0,980,1698454867612160921,,-0.0175,0.2209,0.1247,0.0,0.0,0.0,0.0,0.0,0.0,0.0,0.0,0.0,
1698454867638530517,0,1698454867637082576,IMU1_Frame,981,1698454867637082576,,-0.7177332752793542,0.657947115111108,0.0293363930705125,-0.2260617511109594,0.0,0.0,0.0,0.0,0.0,0.0,0.0,0.0,0.0,-0.014826,-0.013536,-0.00672,0.0,0.0,0.0,0.0,0.0,0.0,0.0,0.0,0.0,1.684,-0.035,-9.823,0.0,0.0,0.0,0.0,0.0,0.0,0.0,0.0,0.0,981,1698454867637082576,,-0.0189,0.2209,0.1229,0.0,0.0,0.0,0.0,0.0,0.0,0.0,0.0,0.0,
1698454867664711180,0,1698454867662188291,IMU1_Frame,982,1698454867662188291,,-0.711358342253393,0.6618304286339997,0.038347709116209286,-0.23340789585226046,0.0,0.0,0.0,0.0,0.0,0.0,0.0,0.0,0.0,-0.013872,-0.010092,-0.00599,0.0,0.0,0.0,0.0,0.0,0.0,0.0,0.0,0.0,1.777,0.018,-10.057,0.0,0.0,0.0,0.0,0.0,0.0,0.0,0.0,0.0,982,1698454867662188291,,-0.0133,0.2227,0.1216,0.0,0.0,0.0,0.0,0.0,0.0,0.0,0.0,0.0,
1698454867690167070,0,1698454867687074899,IMU1_Frame,983,1698454867687074899,,-0.7066077839729561,0.6647749710234472,0.04772647366876648,-0.23770120159718897,0.0,0.0,0.0,0.0,0.0,0.0,0.0,0.0,0.0,-0.011141,-0.007738,-0.00871,0.0,0.0,0.0,0.0,0.0,0.0,0.0,0.0,0.0,1.79,0.065,-9.85,0.0,0.0,0.0,0.0,0.0,0.0,0.0,0.0,0.0,983,1698454867687074899,,-0.0192,0.2114,0.1218,0.0,0.0,0.0,0.0,0.0,0.0,0.0,0.0,0.0,
1698454867713951033,0,1698454867712231874,IMU1_Frame,984,1698454867712231874,,-0.7012581190323377,0.6682250756142678,0.05441542007725575,-0.24238659383173322,0.0,0.0,0.0,0.0,0.0,0.0,0.0,0.0,0.0,-0.008527,0.003469,-0.00833,0.0,0.0,0.0,0.0,0.0,0.0,0.0,0.0,0.0,1.921,0.071,-9.92,0.0,0.0,0.0,0.0,0.0,0.0,0.0,0.0,0.0,984,1698454867712231874,,-0.0203,0.221,0.1247,0.0,0.0,0.0,0.0,0.0,0.0,0.0,0.0,0.0,
1698454867738529822,0,1698454867737006425,IMU1_Frame,985,1698454867737006425,,-0.6959624880497641,0.6715410505744196,0.058187710074520574,-0.2475540809949821,0.0,0.0,0.0,0.0,0.0,0.0,0.0,0.0,0.0,-0.007099,-0.002897,-0.00767,0.0,0.0,0.0,0.0,0.0,0.0,0.0,0.0,0.0,1.818,0.064,-9.956,0.0,0.0,0.0,0.0,0.0,0.0,0.0,0.0,0.0,985,1698454867737006425,,-0.0205,0.2153,0.1271,0.0,0.0,0.0,0.0,0.0,0.0,0.0,0.0,0.0,
1698454867762899553,0,1698454867761973857,IMU1_Frame,986,1698454867761973857,,-0.6906188628445005,0.6760999540435637,0.06301561903809057,-0.24892462751384467,0.0,0.0,0.0,0.0,0.0,0.0,0.0,0.0,0.0,-0.002487,0.005665,-0.00843,0.0,0.0,0.0,0.0,0.0,0.0,0.0,0.0,0.0,1.799,0.187,-9.945,0.0,0.0,0.0,0.0,0.0,0.0,0.0,0.0,0.0,986,1698454867761973857,,-0.0161,0.2189,0.1171,0.0,0.0,0.0,0.0,0.0,0.0,0.0,0.0,0.0,
1698454867789537403,0,1698454867786968469,IMU1_Frame,987,1698454867786968469,,-0.6857441727000672,0.6796696156592325,0.06341657645473771,-0.2525519372095412,0.0,0.0,0.0,0.0,0.0,0.0,0.0,0.0,0.0,-0.002154,0.001535,-0.00776,0.0,0.0,0.0,0.0,0.0,0.0,0.0,0.0,0.0,1.772,0.158,-9.944,0.0,0.0,0.0,0.0,0.0,0.0,0.0,0.0,0.0,987,1698454867786968469,,-0.0155,0.2359,0.1136,0.0,0.0,0.0,0.0,0.0,0.0,0.0,0.0,0.0,
1698454867814317582,0,1698454867812147855,IMU1_Frame,988,1698454867812147855,,-0.6805566305565219,0.684061614264478,0.0657029202886606,-0.2541367875002989,0.0,0.0,0.0,0.0,0.0,0.0,0.0,0.0,0.0,-0.002721,0.007799,-0.00864,0.0,0.0,0.0,0.0,0.0,0.0,0.0,0.0,0.0,1.857,0.102,-9.822,0.0,0.0,0.0,0.0,0.0,0.0,0.0,0.0,0.0,988,1698454867812147855,,-0.0203,0.219,0.1189,0.0,0.0,0.0,0.0,0.0,0.0,0.0,0.0,0.0,
1698454867839999921,0,1698454867837148189,IMU1_Frame,989,1698454867837148189,,-0.6757704313094024,0.6878178632029026,0.06703833165949043,-0.25641133616751316,0.0,0.0,0.0,0.0,0.0,0.0,0.0,0.0,0.0,-0.006363,0.017111,-0.00569,0.0,0.0,0.0,0.0,0.0,0.0,0.0,0.0,0.0,1.857,0.099,-10.081,0.0,0.0,0.0,0.0,0.0,0.0,0.0,0.0,0.0,989,1698454867837148189,,-0.0187,0.2266,0.1206,0.0,0.0,0.0,0.0,0.0,0.0,0.0,0.0,0.0,
1698454867864705434,0,1698454867862053632,IMU1_Frame,990,1698454867862053632,,-0.6690034734281973,0.691540335298098,0.068664969884376,-0.2636122893713022,0.0,0.0,0.0,0.0,0.0,0.0,0.0,0.0,0.0,-0.008132,-0.009653,-0.01019,0.0,0.0,0.0,0.0,0.0,0.0,0.0,0.0,0.0,1.789,0.025,-9.854,0.0,0.0,0.0,0.0,0.0,0.0,0.0,0.0,0.0,990,1698454867862053632,,-0.0202,0.2248,0.1271,0.0,0.0,0.0,0.0,0.0,0.0,0.0,0.0,0.0,
1698454867888470042,0,1698454867886788368,IMU1_Frame,991,1698454867886788368,,-0.6626359724411387,0.6953645347808138,0.07524634267693439,-0.26780537655131964,0.0,0.0,0.0,0.0,0.0,0.0,0.0,0.0,0.0,-0.010603,0.018862,-0.00366,0.0,0.0,0.0,0.0,0.0,0.0,0.0,0.0,0.0,1.927,0.053,-9.926,0.0,0.0,0.0,0.0,0.0,0.0,0.0,0.0,0.0,991,1698454867886788368,,-0.0189,0.2248,0.1322,0.0,0.0,0.0,0.0,0.0,0.0,0.0,0.0,0.0,
1698454867913352176,0,1698454867911893129,IMU1_Frame,992,1698454867911893129,,-0.656933389910299,0.6981588030449513,0.07816552491474027,-0.2736840471540258,0.0,0.0,0.0,0.0,0.0,0.0,0.0,0.0,0.0,-0.006279,-0.003224,-0.00632,0.0,0.0,0.0,0.0,0.0,0.0,0.0,0.0,0.0,1.855,0.045,-9.895,0.0,0.0,0.0,0.0,0.0,0.0,0.0,0.0,0.0,992,1698454867911893129,,-0.0202,0.2248,0.1271,0.0,0.0,0.0,0.0,0.0,0.0,0.0,0.0,0.0,
1698454867938237900,0,1698454867936843156,IMU1_Frame,993,1698454867936843156,,-0.6530376896832115,0.7007839445320396,0.07925250915545262,-0.27597586621277936,0.0,0.0,0.0,0.0,0.0,0.0,0.0,0.0,0.0,-0.002662,0.009862,-0.00403,0.0,0.0,0.0,0.0,0.0,0.0,0.0,0.0,0.0,1.885,0.092,-9.911,0.0,0.0,0.0,0.0,0.0,0.0,0.0,0.0,0.0,993,1698454867936843156,,-0.0203,0.2248,0.1317,0.0,0.0,0.0,0.0,0.0,0.0,0.0,0.0,0.0,
1698454867963938019,0,1698454867961797475,IMU1_Frame,994,1698454867961797475,,-0.6507389953410733,0.702344532816133,0.07439133303490914,-0.2787774143202201,0.0,0.0,0.0,0.0,0.0,0.0,0.0,0.0,0.0,0.003173,0.006235,-0.00303,0.0,0.0,0.0,0.0,0.0,0.0,0.0,0.0,0.0,1.935,0.02,-9.788,0.0,0.0,0.0,0.0,0.0,0.0,0.0,0.0,0.0,994,1698454867961797475,,-0.0131,0.2265,0.1205,0.0,0.0,0.0,0.0,0.0,0.0,0.0,0.0,0.0,
1698454867987630570,0,1698454867987003564,IMU1_Frame,995,1698454867987003564,,-0.6480694730886842,0.7047985118145035,0.07030581805557297,-0.27986087211711613,0.0,0.0,0.0,0.0,0.0,0.0,0.0,0.0,0.0,5.5e-05,0.009936,-0.0048,0.0,0.0,0.0,0.0,0.0,0.0,0.0,0.0,0.0,2.022,0.054,-9.717,0.0,0.0,0.0,0.0,0.0,0.0,0.0,0.0,0.0,995,1698454867987003564,,-0.0113,0.2397,0.1187,0.0,0.0,0.0,0.0,0.0,0.0,0.0,0.0,0.0,
1698454868013997968,0,1698454868011891603,IMU1_Frame,996,1698454868011891603,,-0.6457444893028642,0.7059380128250059,0.06897572966377194,-0.28267989900418306,0.0,0.0,0.0,0.0,0.0,0.0,0.0,0.0,0.0,-0.00589,0.006014,-0.0031,0.0,0.0,0.0,0.0,0.0,0.0,0.0,0.0,0.0,1.986,0.042,-9.771,0.0,0.0,0.0,0.0,0.0,0.0,0.0,0.0,0.0,996,1698454868011891603,,-0.0144,0.2303,0.1199,0.0,0.0,0.0,0.0,0.0,0.0,0.0,0.0,0.0,
1698454868040293261,0,1698454868037040472,IMU1_Frame,997,1698454868037040472,,-0.6379829381735586,0.7080705888824811,0.06743856313195519,-0.2950692324891686,0.0,0.0,0.0,0.0,0.0,0.0,0.0,0.0,0.0,-0.013438,0.007651,-0.00514,0.0,0.0,0.0,0.0,0.0,0.0,0.0,0.0,0.0,1.87,0.064,-9.906,0.0,0.0,0.0,0.0,0.0,0.0,0.0,0.0,0.0,997,1698454868037040472,,-0.0158,0.2284,0.1205,0.0,0.0,0.0,0.0,0.0,0.0,0.0,0.0,0.0,
1698454868064061399,0,1698454868061936378,IMU1_Frame,998,1698454868061936378,,-0.6312005799591197,0.7097720290193987,0.0701752715029543,-0.30477028390321,0.0,0.0,0.0,0.0,0.0,0.0,0.0,0.0,0.0,-0.013019,0.007766,-0.00299,0.0,0.0,0.0,0.0,0.0,0.0,0.0,0.0,0.0,1.979,0.186,-9.935,0.0,0.0,0.0,0.0,0.0,0.0,0.0,0.0,0.0,998,1698454868061936378,,-0.0141,0.2398,0.1211,0.0,0.0,0.0,0.0,0.0,0.0,0.0,0.0,0.0,
